Space1.keys,Space1.rt,Space2.keys,Space2.rt,key_resp.keys,key_resp.corr,key_resp.rt,Practice_loop.thisRepN,Practice_loop.thisTrialN,Practice_loop.thisN,Practice_loop.thisIndex,Practice_loop.ran,Target1,Prime,Target2,Type,CorrAns,Participant I.D.,date,expName,psychopyVersion,OS,frameRate,Space3.keys,Space3.rt,key_resp_2.keys,key_resp_2.corr,key_resp_2.rt,trials.thisRepN,trials.thisTrialN,trials.thisN,trials.thisIndex,trials.ran,key_resp_3.keys,key_resp_3.rt,typedWord,key_resp_4.keys,key_resp_4.rt,typedWord2,key_resp_5.keys,key_resp_5.rt
space,0.966715,space,8.189625,z,1,1.807055,0,0,0,21,1,campet,cantet,CAMPET,NWRL,z,4439,2020-08-04_20h00.30.484,ColomboPrimingTaskB,2020.1.2,MacIntel,60,,,,,,,,,,,,,,,,,,
,,,,m,1,0.797535,0,1,1,3,1,fifty,fitfy,FIFTY,WTL,m,4439,2020-08-04_20h00.30.484,ColomboPrimingTaskB,2020.1.2,MacIntel,60,,,,,,,,,,,,,,,,,,
,,,,m,1,0.844875,0,2,2,10,1,twitter,twitofr,TWITTER,WRL,m,4439,2020-08-04_20h00.30.484,ColomboPrimingTaskB,2020.1.2,MacIntel,60,,,,,,,,,,,,,,,,,,
,,,,m,1,0.731165,0,3,3,9,1,parcel,pafbel,PARCEL,WRL,m,4439,2020-08-04_20h00.30.484,ColomboPrimingTaskB,2020.1.2,MacIntel,60,,,,,,,,,,,,,,,,,,
,,,,z,1,1.14658,0,4,4,15,1,etephant,etpheant,ETEPHANT,NWTL,z,4439,2020-08-04_20h00.30.484,ColomboPrimingTaskB,2020.1.2,MacIntel,60,,,,,,,,,,,,,,,,,,
,,,,m,1,1.230085,0,5,5,4,1,laundry,laudnry,LAUNDRY,WTL,m,4439,2020-08-04_20h00.30.484,ColomboPrimingTaskB,2020.1.2,MacIntel,60,,,,,,,,,,,,,,,,,,
,,,,m,1,1.24942,0,6,6,2,1,festival,fetsival,FESTIVAL,WTL,m,4439,2020-08-04_20h00.30.484,ColomboPrimingTaskB,2020.1.2,MacIntel,60,,,,,,,,,,,,,,,,,,
,,,,z,1,1.114435,0,7,7,20,1,bubbfes,buddfes,BUBBFES,NWRL,z,4439,2020-08-04_20h00.30.484,ColomboPrimingTaskB,2020.1.2,MacIntel,60,,,,,,,,,,,,,,,,,,
,,,,m,0,0.917355,0,8,8,17,1,flech,felch,FLECH,NWTL,z,4439,2020-08-04_20h00.30.484,ColomboPrimingTaskB,2020.1.2,MacIntel,60,,,,,,,,,,,,,,,,,,
,,,,z,1,0.90183,0,9,9,12,1,codfort,cofdort,CODFORT,NWTL,z,4439,2020-08-04_20h00.30.484,ColomboPrimingTaskB,2020.1.2,MacIntel,60,,,,,,,,,,,,,,,,,,
,,,,m,1,1.21652,0,10,10,1,1,elderflower,elferdower,ELDERFLOWER,WTL,m,4439,2020-08-04_20h00.30.484,ColomboPrimingTaskB,2020.1.2,MacIntel,60,,,,,,,,,,,,,,,,,,
,,,,m,1,0.990905,0,11,11,11,1,violin,viprin,VIOLIN,WRL,m,4439,2020-08-04_20h00.30.484,ColomboPrimingTaskB,2020.1.2,MacIntel,60,,,,,,,,,,,,,,,,,,
,,,,z,1,1.48437,0,12,12,14,1,dinital,ditinal,DINITAL,NWTL,z,4439,2020-08-04_20h00.30.484,ColomboPrimingTaskB,2020.1.2,MacIntel,60,,,,,,,,,,,,,,,,,,
,,,,m,1,1.68973,0,13,13,5,1,library,lirbary,LIBRARY,WTL,m,4439,2020-08-04_20h00.30.484,ColomboPrimingTaskB,2020.1.2,MacIntel,60,,,,,,,,,,,,,,,,,,
,,,,m,1,0.66882,0,14,14,8,1,picture,pimrure,PICTURE,WRL,m,4439,2020-08-04_20h00.30.484,ColomboPrimingTaskB,2020.1.2,MacIntel,60,,,,,,,,,,,,,,,,,,
,,,,z,1,0.799935,0,15,15,22,1,chfistmas,chrustmas,CHFISTMAS,NWRL,z,4439,2020-08-04_20h00.30.484,ColomboPrimingTaskB,2020.1.2,MacIntel,60,,,,,,,,,,,,,,,,,,
,,,,z,1,0.872145,0,16,16,19,1,bacoon,barkon,BACOON,NWRL,z,4439,2020-08-04_20h00.30.484,ColomboPrimingTaskB,2020.1.2,MacIntel,60,,,,,,,,,,,,,,,,,,
,,,,m,1,0.8204,0,17,17,0,1,coral,croal,CORAL,WTL,m,4439,2020-08-04_20h00.30.484,ColomboPrimingTaskB,2020.1.2,MacIntel,60,,,,,,,,,,,,,,,,,,
,,,,z,1,0.816375,0,18,18,18,1,alacus,afogus,ALACUS,NWRL,z,4439,2020-08-04_20h00.30.484,ColomboPrimingTaskB,2020.1.2,MacIntel,60,,,,,,,,,,,,,,,,,,
,,,,z,1,1.21673,0,19,19,16,1,clirate,crilate,CLIRATE,NWTL,z,4439,2020-08-04_20h00.30.484,ColomboPrimingTaskB,2020.1.2,MacIntel,60,,,,,,,,,,,,,,,,,,
,,,,z,1,1.20051,0,20,20,13,1,cobcert,cocbert,COBCERT,NWTL,z,4439,2020-08-04_20h00.30.484,ColomboPrimingTaskB,2020.1.2,MacIntel,60,,,,,,,,,,,,,,,,,,
,,,,m,1,0.950255,0,21,21,7,1,nursery,nuftery,NURSERY,WRL,m,4439,2020-08-04_20h00.30.484,ColomboPrimingTaskB,2020.1.2,MacIntel,60,,,,,,,,,,,,,,,,,,
,,,,m,1,1.206745,0,22,22,6,1,monopoly,mogomoly,MONOPOLY,WRL,m,4439,2020-08-04_20h00.30.484,ColomboPrimingTaskB,2020.1.2,MacIntel,60,,,,,,,,,,,,,,,,,,
,,,,z,1,0.98305,0,23,23,23,1,cnipper,crupper,CNIPPER,NWRL,z,4439,2020-08-04_20h00.30.484,ColomboPrimingTaskB,2020.1.2,MacIntel,60,,,,,,,,,,,,,,,,,,
,,,,,,,,,,,,statue,sattue,STATUE,TL1,m,4439,2020-08-04_20h00.30.484,ColomboPrimingTaskB,2020.1.2,MacIntel,60,space,2.96594,m,1,0.900115,0,0,0,64,1,,,,,,,,
,,,,,,,,,,,,tronch,tornch,TRONCH,TLNW,z,4439,2020-08-04_20h00.30.484,ColomboPrimingTaskB,2020.1.2,MacIntel,60,,,z,1,0.700985,0,1,1,150,1,,,,,,,,
,,,,,,,,,,,,sturfish,strufish,STURFISH,TLNW,z,4439,2020-08-04_20h00.30.484,ColomboPrimingTaskB,2020.1.2,MacIntel,60,,,m,0,2.36758,0,2,2,139,1,,,,,,,,
,,,,,,,,,,,,enezies,eneizes,ENEZIES,TLNW,z,4439,2020-08-04_20h00.30.484,ColomboPrimingTaskB,2020.1.2,MacIntel,60,,,z,1,1.08189,0,3,3,98,1,,,,,,,,
,,,,,,,,,,,,privary,privony,PRIVARY,RLNW,z,4439,2020-08-04_20h00.30.484,ColomboPrimingTaskB,2020.1.2,MacIntel,60,,,z,1,1.066605,0,4,4,121,1,,,,,,,,
,,,,,,,,,,,,legend,lafend,LEGEND,RL1,m,4439,2020-08-04_20h00.30.484,ColomboPrimingTaskB,2020.1.2,MacIntel,60,,,m,1,0.64817,0,5,5,31,1,,,,,,,,
,,,,,,,,,,,,return,retown,RETURN,RL2,m,4439,2020-08-04_20h00.30.484,ColomboPrimingTaskB,2020.1.2,MacIntel,60,,,m,1,0.61647,0,6,6,53,1,,,,,,,,
,,,,,,,,,,,,playnime,plarmime,PLAYNIME,RLNW,z,4439,2020-08-04_20h00.30.484,ColomboPrimingTaskB,2020.1.2,MacIntel,60,,,z,1,1.350035,0,7,7,120,1,,,,,,,,
,,,,,,,,,,,,stull,stlul,STULL,TLNW,z,4439,2020-08-04_20h00.30.484,ColomboPrimingTaskB,2020.1.2,MacIntel,60,,,m,0,1.415915,0,8,8,136,1,,,,,,,,
,,,,,,,,,,,,emter,etmer,EMTER,TLNW,z,4439,2020-08-04_20h00.30.484,ColomboPrimingTaskB,2020.1.2,MacIntel,60,,,z,1,1.66643,0,9,9,99,1,,,,,,,,
,,,,,,,,,,,,winter,wniter,WINTER,TL1,m,4439,2020-08-04_20h00.30.484,ColomboPrimingTaskB,2020.1.2,MacIntel,60,,,m,1,0.6498,0,10,10,77,1,,,,,,,,
,,,,,,,,,,,,dored,dized,DORED,RLNW,z,4439,2020-08-04_20h00.30.484,ColomboPrimingTaskB,2020.1.2,MacIntel,60,,,z,1,0.80043,0,11,11,96,1,,,,,,,,
,,,,,,,,,,,,around,aronud,AROUND,TL2,m,4439,2020-08-04_20h00.30.484,ColomboPrimingTaskB,2020.1.2,MacIntel,60,,,m,1,0.80001,0,12,12,2,1,,,,,,,,
,,,,,,,,,,,,sunset,snuset,SUNSET,TL1,m,4439,2020-08-04_20h00.30.484,ColomboPrimingTaskB,2020.1.2,MacIntel,60,,,m,1,0.931785,0,13,13,68,1,,,,,,,,
,,,,,,,,,,,,skirping,skawping,SKIRPING,RLNW,z,4439,2020-08-04_20h00.30.484,ColomboPrimingTaskB,2020.1.2,MacIntel,60,,,z,1,0.933465,0,14,14,131,1,,,,,,,,
,,,,,,,,,,,,niffling,nilffing,NIFFLING,TLNW,z,4439,2020-08-04_20h00.30.484,ColomboPrimingTaskB,2020.1.2,MacIntel,60,,,z,1,1.1668,0,15,15,116,1,,,,,,,,
,,,,,,,,,,,,story,sotry,STORY,TL1,m,4439,2020-08-04_20h00.30.484,ColomboPrimingTaskB,2020.1.2,MacIntel,60,,,m,1,0.5496,0,16,16,66,1,,,,,,,,
,,,,,,,,,,,,senved,sevned,SENVED,TLNW,z,4439,2020-08-04_20h00.30.484,ColomboPrimingTaskB,2020.1.2,MacIntel,60,,,z,1,0.802175,0,17,17,101,1,,,,,,,,
,,,,,,,,,,,,tourist,tuorist,TOURIST,TL1,m,4439,2020-08-04_20h00.30.484,ColomboPrimingTaskB,2020.1.2,MacIntel,60,,,m,1,0.699875,0,18,18,72,1,,,,,,,,
,,,,,,,,,,,,singer,sintor,SINGER,RL2,m,4439,2020-08-04_20h00.30.484,ColomboPrimingTaskB,2020.1.2,MacIntel,60,,,m,1,0.62018,0,19,19,57,1,,,,,,,,
,,,,,,,,,,,,taidor,tiador,TAIDOR,TLNW,z,4439,2020-08-04_20h00.30.484,ColomboPrimingTaskB,2020.1.2,MacIntel,60,,,z,1,0.73856,0,20,20,145,1,,,,,,,,
,,,,,,,,,,,,potato,potido,POTATO,RL2,m,4439,2020-08-04_20h00.30.484,ColomboPrimingTaskB,2020.1.2,MacIntel,60,,,m,1,0.884105,0,21,21,48,1,,,,,,,,
,,,,,,,,,,,,spoff,sopff,SPOFF,TLNW,z,4439,2020-08-04_20h00.30.484,ColomboPrimingTaskB,2020.1.2,MacIntel,60,,,z,1,0.768655,0,22,22,143,1,,,,,,,,
,,,,,,,,,,,,referee,refenie,REFEREE,RL2,m,4439,2020-08-04_20h00.30.484,ColomboPrimingTaskB,2020.1.2,MacIntel,60,,,m,1,2.700965,0,23,23,52,1,,,,,,,,
,,,,,,,,,,,,hospital,hempital,HOSPITAL,RL1,m,4439,2020-08-04_20h00.30.484,ColomboPrimingTaskB,2020.1.2,MacIntel,60,,,m,1,0.91646,0,24,24,26,1,,,,,,,,
,,,,,,,,,,,,market,motket,MARKET,RL1,m,4439,2020-08-04_20h00.30.484,ColomboPrimingTaskB,2020.1.2,MacIntel,60,,,m,1,0.733775,0,25,25,34,1,,,,,,,,
,,,,,,,,,,,,skiffed,skiftad,SKIFFED,RLNW,z,4439,2020-08-04_20h00.30.484,ColomboPrimingTaskB,2020.1.2,MacIntel,60,,,z,1,1.054485,0,26,26,130,1,,,,,,,,
,,,,,,,,,,,,orchestra,onthestra,ORCHESTRA,RL1,m,4439,2020-08-04_20h00.30.484,ColomboPrimingTaskB,2020.1.2,MacIntel,60,,,m,1,0.83589,0,27,27,38,1,,,,,,,,
,,,,,,,,,,,,bidger,bofger,BIDGER,RLNW,z,4439,2020-08-04_20h00.30.484,ColomboPrimingTaskB,2020.1.2,MacIntel,60,,,z,1,0.783355,0,28,28,81,1,,,,,,,,
,,,,,,,,,,,,canivan,canuran,CANIVAN,RLNW,z,4439,2020-08-04_20h00.30.484,ColomboPrimingTaskB,2020.1.2,MacIntel,60,,,z,1,0.98608,0,29,29,84,1,,,,,,,,
,,,,,,,,,,,,pavement,pavemist,PAVEMENT,RL2,m,4439,2020-08-04_20h00.30.484,ColomboPrimingTaskB,2020.1.2,MacIntel,60,,,m,1,2.63352,0,30,30,42,1,,,,,,,,
,,,,,,,,,,,,match,myrch,MATCH,RL1,m,4439,2020-08-04_20h00.30.484,ColomboPrimingTaskB,2020.1.2,MacIntel,60,,,m,1,0.683345,0,31,31,35,1,,,,,,,,
,,,,,,,,,,,,lying,luang,LYING,RL1,m,4439,2020-08-04_20h00.30.484,ColomboPrimingTaskB,2020.1.2,MacIntel,60,,,m,1,0.70692,0,32,32,33,1,,,,,,,,
,,,,,,,,,,,,child,chlid,CHILD,TL2,m,4439,2020-08-04_20h00.30.484,ColomboPrimingTaskB,2020.1.2,MacIntel,60,,,m,1,0.616345,0,33,33,12,1,,,,,,,,
,,,,,,,,,,,,holmits,homlits,HOLMITS,TLNW,z,4439,2020-08-04_20h00.30.484,ColomboPrimingTaskB,2020.1.2,MacIntel,60,,,z,1,0.802625,0,34,34,108,1,,,,,,,,
,,,,,,,,,,,,robber,roblar,ROBBER,RL2,m,4439,2020-08-04_20h00.30.484,ColomboPrimingTaskB,2020.1.2,MacIntel,60,,,z,0,0.75415,0,35,35,54,1,,,,,,,,
,,,,,,,,,,,,hibernate,hafernate,HIBERNATE,RL1,m,4439,2020-08-04_20h00.30.484,ColomboPrimingTaskB,2020.1.2,MacIntel,60,,,z,0,2.93976,0,36,36,24,1,,,,,,,,
,,,,,,,,,,,,crunphy,clinphy,CRUNPHY,RLNW,z,4439,2020-08-04_20h00.30.484,ColomboPrimingTaskB,2020.1.2,MacIntel,60,,,z,1,1.484375,0,37,37,92,1,,,,,,,,
,,,,,,,,,,,,ghost,glust,GHOST,RL1,m,4439,2020-08-04_20h00.30.484,ColomboPrimingTaskB,2020.1.2,MacIntel,60,,,m,1,0.599635,0,38,38,22,1,,,,,,,,
,,,,,,,,,,,,leopard,luipard,LEOPARD,RL1,m,4439,2020-08-04_20h00.30.484,ColomboPrimingTaskB,2020.1.2,MacIntel,60,,,m,1,0.919695,0,39,39,32,1,,,,,,,,
,,,,,,,,,,,,panther,pantlor,PANTHER,RL2,m,4439,2020-08-04_20h00.30.484,ColomboPrimingTaskB,2020.1.2,MacIntel,60,,,m,1,0.76993,0,40,40,40,1,,,,,,,,
,,,,,,,,,,,,environment,environmnet,ENVIRONMENT,TL2,m,4439,2020-08-04_20h00.30.484,ColomboPrimingTaskB,2020.1.2,MacIntel,60,,,m,1,1.784655,0,41,41,16,1,,,,,,,,
,,,,,,,,,,,,stody,sotdy,STODY,TLNW,z,4439,2020-08-04_20h00.30.484,ColomboPrimingTaskB,2020.1.2,MacIntel,60,,,z,1,1.35233,0,42,42,142,1,,,,,,,,
,,,,,,,,,,,,difentions,difortions,DIFENTIONS,RLNW,z,4439,2020-08-04_20h00.30.484,ColomboPrimingTaskB,2020.1.2,MacIntel,60,,,z,1,1.506655,0,43,43,95,1,,,,,,,,
,,,,,,,,,,,,forty,fumty,FORTY,RL1,m,4439,2020-08-04_20h00.30.484,ColomboPrimingTaskB,2020.1.2,MacIntel,60,,,z,0,1.94947,0,44,44,21,1,,,,,,,,
,,,,,,,,,,,,stilks,stofks,STILKS,RLNW,z,4439,2020-08-04_20h00.30.484,ColomboPrimingTaskB,2020.1.2,MacIntel,60,,,z,1,1.53375,0,45,45,135,1,,,,,,,,
,,,,,,,,,,,,fulore,fluore,FULORE,TLNW,z,4439,2020-08-04_20h00.30.484,ColomboPrimingTaskB,2020.1.2,MacIntel,60,,,z,1,1.51764,0,46,46,103,1,,,,,,,,
,,,,,,,,,,,,swallow,sawllow,SWALLOW,TL1,m,4439,2020-08-04_20h00.30.484,ColomboPrimingTaskB,2020.1.2,MacIntel,60,,,m,1,0.850135,0,47,47,69,1,,,,,,,,
,,,,,,,,,,,,dimotaurs,dizetaurs,DIMOTAURS,RLNW,z,4439,2020-08-04_20h00.30.484,ColomboPrimingTaskB,2020.1.2,MacIntel,60,,,z,1,1.199495,0,48,48,94,1,,,,,,,,
,,,,,,,,,,,,alphabet,alphaebt,ALPHABET,TL2,m,4439,2020-08-04_20h00.30.484,ColomboPrimingTaskB,2020.1.2,MacIntel,60,,,m,1,0.73354,0,49,49,1,1,,,,,,,,
,,,,,,,,,,,,mirtioned,mitrioned,MIRTIONED,TLNW,z,4439,2020-08-04_20h00.30.484,ColomboPrimingTaskB,2020.1.2,MacIntel,60,,,z,1,1.88721,0,50,50,113,1,,,,,,,,
,,,,,,,,,,,,believe,belivee,BELIEVE,TL2,m,4439,2020-08-04_20h00.30.484,ColomboPrimingTaskB,2020.1.2,MacIntel,60,,,m,1,1.217065,0,51,51,5,1,,,,,,,,
,,,,,,,,,,,,burning,burnnig,BURNING,TL2,m,4439,2020-08-04_20h00.30.484,ColomboPrimingTaskB,2020.1.2,MacIntel,60,,,m,1,0.68116,0,52,52,9,1,,,,,,,,
,,,,,,,,,,,,crims,cloms,CRIMS,RLNW,z,4439,2020-08-04_20h00.30.484,ColomboPrimingTaskB,2020.1.2,MacIntel,60,,,z,1,1.28365,0,53,53,91,1,,,,,,,,
,,,,,,,,,,,,prince,primse,PRINCE,RL2,m,4439,2020-08-04_20h00.30.484,ColomboPrimingTaskB,2020.1.2,MacIntel,60,,,m,1,0.71692,0,54,54,50,1,,,,,,,,
,,,,,,,,,,,,callage,calluze,CALLAGE,RLNW,z,4439,2020-08-04_20h00.30.484,ColomboPrimingTaskB,2020.1.2,MacIntel,60,,,z,1,1.08419,0,55,55,83,1,,,,,,,,
,,,,,,,,,,,,loarnt,lorant,LOARNT,TLNW,z,4439,2020-08-04_20h00.30.484,ColomboPrimingTaskB,2020.1.2,MacIntel,60,,,z,1,1.95115,0,56,56,110,1,,,,,,,,
,,,,,,,,,,,,wilked,wikled,WILKED,TLNW,z,4439,2020-08-04_20h00.30.484,ColomboPrimingTaskB,2020.1.2,MacIntel,60,,,z,1,1.05707,0,57,57,152,1,,,,,,,,
,,,,,,,,,,,,almond,almnod,ALMOND,TL2,m,4439,2020-08-04_20h00.30.484,ColomboPrimingTaskB,2020.1.2,MacIntel,60,,,m,1,0.63033,0,58,58,0,1,,,,,,,,
,,,,,,,,,,,,patient,patiort,PATIENT,RL2,m,4439,2020-08-04_20h00.30.484,ColomboPrimingTaskB,2020.1.2,MacIntel,60,,,m,1,2.19986,0,59,59,41,1,,,,,,,,
,,,,,,,,,,,,powerful,powerdil,POWERFUL,RL2,m,4439,2020-08-04_20h00.30.484,ColomboPrimingTaskB,2020.1.2,MacIntel,60,,,m,1,0.90563,0,60,60,49,1,,,,,,,,
,,,,,,,,,,,,thoatre,thotare,THOATRE,TLNW,z,4439,2020-08-04_20h00.30.484,ColomboPrimingTaskB,2020.1.2,MacIntel,60,,,z,1,1.11441,0,61,61,147,1,,,,,,,,
,,,,,,,,,,,,wutch,wucth,WUTCH,TLNW,z,4439,2020-08-04_20h00.30.484,ColomboPrimingTaskB,2020.1.2,MacIntel,60,,,z,1,0.700175,0,62,62,154,1,,,,,,,,
,,,,,,,,,,,,arvument,ansument,ARVUMENT,RLNW,z,4439,2020-08-04_20h00.30.484,ColomboPrimingTaskB,2020.1.2,MacIntel,60,,,z,1,0.950465,0,63,63,79,1,,,,,,,,
,,,,,,,,,,,,renorded,renaided,RENORDED,RLNW,z,4439,2020-08-04_20h00.30.484,ColomboPrimingTaskB,2020.1.2,MacIntel,60,,,z,1,1.300455,0,64,64,124,1,,,,,,,,
,,,,,,,,,,,,winner,wniner,WINNER,TL1,m,4439,2020-08-04_20h00.30.484,ColomboPrimingTaskB,2020.1.2,MacIntel,60,,,m,1,0.81641,0,65,65,76,1,,,,,,,,
,,,,,,,,,,,,talking,tlaking,TALKING,TL1,m,4439,2020-08-04_20h00.30.484,ColomboPrimingTaskB,2020.1.2,MacIntel,60,,,m,1,0.7396,0,66,66,70,1,,,,,,,,
,,,,,,,,,,,,birthday,birthady,BIRTHDAY,TL2,m,4439,2020-08-04_20h00.30.484,ColomboPrimingTaskB,2020.1.2,MacIntel,60,,,m,1,0.78376,0,67,67,6,1,,,,,,,,
,,,,,,,,,,,,penguin,pengoan,PENGUIN,RL2,m,4439,2020-08-04_20h00.30.484,ColomboPrimingTaskB,2020.1.2,MacIntel,60,,,m,1,1.00049,0,68,68,43,1,,,,,,,,
,,,,,,,,,,,,entry,enrty,ENTRY,TL2,m,4439,2020-08-04_20h00.30.484,ColomboPrimingTaskB,2020.1.2,MacIntel,60,,,m,1,0.582885,0,69,69,15,1,,,,,,,,
,,,,,,,,,,,,petrol,petnal,PETROL,RL2,m,4439,2020-08-04_20h00.30.484,ColomboPrimingTaskB,2020.1.2,MacIntel,60,,,m,1,0.76727,0,70,70,44,1,,,,,,,,
,,,,,,,,,,,,lopely,lopley,LOPELY,TLNW,z,4439,2020-08-04_20h00.30.484,ColomboPrimingTaskB,2020.1.2,MacIntel,60,,,z,1,1.20128,0,71,71,111,1,,,,,,,,
,,,,,,,,,,,,plain,ploun,PLAIN,RL2,m,4439,2020-08-04_20h00.30.484,ColomboPrimingTaskB,2020.1.2,MacIntel,60,,,m,1,0.62022,0,72,72,46,1,,,,,,,,
,,,,,,,,,,,,stoff,skaff,STOFF,RLNW,z,4439,2020-08-04_20h00.30.484,ColomboPrimingTaskB,2020.1.2,MacIntel,60,,,z,1,0.769685,0,73,73,134,1,,,,,,,,
,,,,,,,,,,,,influence,imbluence,INFLUENCE,RL1,m,4439,2020-08-04_20h00.30.484,ColomboPrimingTaskB,2020.1.2,MacIntel,60,,,m,1,0.690705,0,74,74,28,1,,,,,,,,
,,,,,,,,,,,,asbrunaut,andrunaut,ASBRUNAUT,RLNW,z,4439,2020-08-04_20h00.30.484,ColomboPrimingTaskB,2020.1.2,MacIntel,60,,,z,1,1.00016,0,75,75,80,1,,,,,,,,
,,,,,,,,,,,,spirit,siprit,SPIRIT,TL1,m,4439,2020-08-04_20h00.30.484,ColomboPrimingTaskB,2020.1.2,MacIntel,60,,,m,1,0.48507,0,76,76,63,1,,,,,,,,
,,,,,,,,,,,,drink,drnik,DRINK,TL2,m,4439,2020-08-04_20h00.30.484,ColomboPrimingTaskB,2020.1.2,MacIntel,60,,,m,1,0.44942,0,77,77,14,1,,,,,,,,
,,,,,,,,,,,,stipping,stippnig,STIPPING,TLNW,z,4439,2020-08-04_20h00.30.484,ColomboPrimingTaskB,2020.1.2,MacIntel,60,,,z,1,0.77338,0,78,78,140,1,,,,,,,,
,,,,,,,,,,,,scratch,scronch,SCRATCH,RL2,m,4439,2020-08-04_20h00.30.484,ColomboPrimingTaskB,2020.1.2,MacIntel,60,,,m,1,1.46987,0,79,79,56,1,,,,,,,,
,,,,,,,,,,,,rolief,rolalf,ROLIEF,RLNW,z,4439,2020-08-04_20h00.30.484,ColomboPrimingTaskB,2020.1.2,MacIntel,60,,,z,1,0.85092,0,80,80,125,1,,,,,,,,
,,,,,,,,,,,,floats,flotas,FLOATS,TL2,m,4439,2020-08-04_20h00.30.484,ColomboPrimingTaskB,2020.1.2,MacIntel,60,,,m,1,0.60742,0,81,81,17,1,,,,,,,,
,,,,,,,,,,,,woary,woray,WOARY,TLNW,z,4439,2020-08-04_20h00.30.484,ColomboPrimingTaskB,2020.1.2,MacIntel,60,,,z,1,1.22256,0,82,82,153,1,,,,,,,,
,,,,,,,,,,,,sleeve,seleve,SLEEVE,RL2,m,4439,2020-08-04_20h00.30.484,ColomboPrimingTaskB,2020.1.2,MacIntel,60,,,m,1,0.649805,0,83,83,58,1,,,,,,,,
,,,,,,,,,,,,grufes,gurfes,GRUFES,TLNW,z,4439,2020-08-04_20h00.30.484,ColomboPrimingTaskB,2020.1.2,MacIntel,60,,,z,1,1.018065,0,84,84,105,1,,,,,,,,
,,,,,,,,,,,,pigeon,pigain,PIGEON,RL2,m,4439,2020-08-04_20h00.30.484,ColomboPrimingTaskB,2020.1.2,MacIntel,60,,,m,1,2.94852,0,85,85,45,1,,,,,,,,
,,,,,,,,,,,,following,follownig,FOLLOWING,TL2,m,4439,2020-08-04_20h00.30.484,ColomboPrimingTaskB,2020.1.2,MacIntel,60,,,m,1,0.66111,0,86,86,18,1,,,,,,,,
,,,,,,,,,,,,standust,stadnust,STANDUST,TLNW,z,4439,2020-08-04_20h00.30.484,ColomboPrimingTaskB,2020.1.2,MacIntel,60,,,z,1,0.825655,0,87,87,138,1,,,,,,,,
,,,,,,,,,,,,basket,basekt,BASKET,TL2,m,4439,2020-08-04_20h00.30.484,ColomboPrimingTaskB,2020.1.2,MacIntel,60,,,m,1,0.579605,0,88,88,4,1,,,,,,,,
,,,,,,,,,,,,roinwater,raunwater,ROINWATER,RLNW,z,4439,2020-08-04_20h00.30.484,ColomboPrimingTaskB,2020.1.2,MacIntel,60,,,z,1,1.137805,0,89,89,123,1,,,,,,,,
,,,,,,,,,,,,snack,sanck,SNACK,TL1,m,4439,2020-08-04_20h00.30.484,ColomboPrimingTaskB,2020.1.2,MacIntel,60,,,m,1,0.660005,0,90,90,60,1,,,,,,,,
,,,,,,,,,,,,scraff,stoaff,SCRAFF,RLNW,z,4439,2020-08-04_20h00.30.484,ColomboPrimingTaskB,2020.1.2,MacIntel,60,,,z,1,1.17953,0,91,91,128,1,,,,,,,,
,,,,,,,,,,,,wardrobe,wradrobe,WARDROBE,TL1,m,4439,2020-08-04_20h00.30.484,ColomboPrimingTaskB,2020.1.2,MacIntel,60,,,m,1,0.77566,0,92,92,75,1,,,,,,,,
,,,,,,,,,,,,pevuliar,panuliar,PEVULIAR,RLNW,z,4439,2020-08-04_20h00.30.484,ColomboPrimingTaskB,2020.1.2,MacIntel,60,,,z,1,0.976125,0,93,93,119,1,,,,,,,,
,,,,,,,,,,,,dentist,dentsit,DENTIST,TL2,m,4439,2020-08-04_20h00.30.484,ColomboPrimingTaskB,2020.1.2,MacIntel,60,,,m,1,0.58218,0,94,94,13,1,,,,,,,,
,,,,,,,,,,,,button,butotn,BUTTON,TL2,m,4439,2020-08-04_20h00.30.484,ColomboPrimingTaskB,2020.1.2,MacIntel,60,,,m,1,0.48668,0,95,95,10,1,,,,,,,,
,,,,,,,,,,,,print,prumt,PRINT,RL2,m,4439,2020-08-04_20h00.30.484,ColomboPrimingTaskB,2020.1.2,MacIntel,60,,,m,1,0.53147,0,96,96,51,1,,,,,,,,
,,,,,,,,,,,,rolin,rofan,ROLIN,RLNW,z,4439,2020-08-04_20h00.30.484,ColomboPrimingTaskB,2020.1.2,MacIntel,60,,,z,1,0.713755,0,97,97,126,1,,,,,,,,
,,,,,,,,,,,,rimble,rirkle,RIMBLE,RLNW,z,4439,2020-08-04_20h00.30.484,ColomboPrimingTaskB,2020.1.2,MacIntel,60,,,m,0,1.306075,0,98,98,127,1,,,,,,,,
,,,,,,,,,,,,foreign,fumeign,FOREIGN,TL2,m,4439,2020-08-04_20h00.30.484,ColomboPrimingTaskB,2020.1.2,MacIntel,60,,,m,1,0.82542,0,99,99,19,1,,,,,,,,
,,,,,,,,,,,,yowned,yonwed,YOWNED,TLNW,z,4439,2020-08-04_20h00.30.484,ColomboPrimingTaskB,2020.1.2,MacIntel,60,,,z,1,1.54747,0,100,100,155,1,,,,,,,,
,,,,,,,,,,,,apting,azking,APTING,RLNW,z,4439,2020-08-04_20h00.30.484,ColomboPrimingTaskB,2020.1.2,MacIntel,60,,,z,1,0.984655,0,101,101,78,1,,,,,,,,
,,,,,,,,,,,,dufty,dutfy,DUFTY,TLNW,z,4439,2020-08-04_20h00.30.484,ColomboPrimingTaskB,2020.1.2,MacIntel,60,,,z,1,3.40728,0,102,102,97,1,,,,,,,,
,,,,,,,,,,,,troasure,trosaure,TROASURE,TLNW,z,4439,2020-08-04_20h00.30.484,ColomboPrimingTaskB,2020.1.2,MacIntel,60,,,z,1,1.03416,0,103,103,146,1,,,,,,,,
,,,,,,,,,,,,sibble,sibode,SIBBLE,RLNW,z,4439,2020-08-04_20h00.30.484,ColomboPrimingTaskB,2020.1.2,MacIntel,60,,,z,1,1.037115,0,104,104,129,1,,,,,,,,
,,,,,,,,,,,,knorn,konrn,KNORN,TLNW,z,4439,2020-08-04_20h00.30.484,ColomboPrimingTaskB,2020.1.2,MacIntel,60,,,z,1,2.716285,0,105,105,109,1,,,,,,,,
,,,,,,,,,,,,stimp,stmip,STIMP,TLNW,z,4439,2020-08-04_20h00.30.484,ColomboPrimingTaskB,2020.1.2,MacIntel,60,,,z,1,2.13259,0,106,106,137,1,,,,,,,,
,,,,,,,,,,,,crockle,chickle,CROCKLE,RLNW,z,4439,2020-08-04_20h00.30.484,ColomboPrimingTaskB,2020.1.2,MacIntel,60,,,z,1,1.85156,0,107,107,89,1,,,,,,,,
,,,,,,,,,,,,gniching,ginching,GNICHING,TLNW,z,4439,2020-08-04_20h00.30.484,ColomboPrimingTaskB,2020.1.2,MacIntel,60,,,z,1,0.940575,0,108,108,104,1,,,,,,,,
,,,,,,,,,,,,flazer,falzer,FLAZER,TLNW,z,4439,2020-08-04_20h00.30.484,ColomboPrimingTaskB,2020.1.2,MacIntel,60,,,z,1,0.728185,0,109,109,102,1,,,,,,,,
,,,,,,,,,,,,tomay,toamy,TOMAY,TLNW,z,4439,2020-08-04_20h00.30.484,ColomboPrimingTaskB,2020.1.2,MacIntel,60,,,z,1,0.594175,0,110,110,149,1,,,,,,,,
,,,,,,,,,,,,blanket,blanekt,BLANKET,TL2,m,4439,2020-08-04_20h00.30.484,ColomboPrimingTaskB,2020.1.2,MacIntel,60,,,m,1,0.74842,0,111,111,8,1,,,,,,,,
,,,,,,,,,,,,round,roasd,ROUND,RL2,m,4439,2020-08-04_20h00.30.484,ColomboPrimingTaskB,2020.1.2,MacIntel,60,,,m,1,0.6064,0,112,112,55,1,,,,,,,,
,,,,,,,,,,,,snake,sanke,SNAKE,TL1,m,4439,2020-08-04_20h00.30.484,ColomboPrimingTaskB,2020.1.2,MacIntel,60,,,m,1,0.52016,0,113,113,61,1,,,,,,,,
,,,,,,,,,,,,meanwhile,mionwhile,MEANWHILE,RL1,m,4439,2020-08-04_20h00.30.484,ColomboPrimingTaskB,2020.1.2,MacIntel,60,,,m,1,0.75439,0,114,114,36,1,,,,,,,,
,,,,,,,,,,,,caterpiddar,catonpiddar,CATERPIDDAR,RLNW,z,4439,2020-08-04_20h00.30.484,ColomboPrimingTaskB,2020.1.2,MacIntel,60,,,z,1,1.76984,0,115,115,86,1,,,,,,,,
,,,,,,,,,,,,clavely,chovely,CLAVELY,RLNW,z,4439,2020-08-04_20h00.30.484,ColomboPrimingTaskB,2020.1.2,MacIntel,60,,,z,1,0.90967,0,116,116,88,1,,,,,,,,
,,,,,,,,,,,,thirns,thrins,THIRNS,TLNW,z,4439,2020-08-04_20h00.30.484,ColomboPrimingTaskB,2020.1.2,MacIntel,60,,,z,1,0.69657,0,117,117,148,1,,,,,,,,
,,,,,,,,,,,,kitchen,kolchen,KITCHEN,RL1,m,4439,2020-08-04_20h00.30.484,ColomboPrimingTaskB,2020.1.2,MacIntel,60,,,m,1,0.66555,0,118,118,30,1,,,,,,,,
,,,,,,,,,,,,summer,smumer,SUMMER,TL1,m,4439,2020-08-04_20h00.30.484,ColomboPrimingTaskB,2020.1.2,MacIntel,60,,,m,1,0.612255,0,119,119,67,1,,,,,,,,
,,,,,,,,,,,,hoafe,hofae,HOAFE,TLNW,z,4439,2020-08-04_20h00.30.484,ColomboPrimingTaskB,2020.1.2,MacIntel,60,,,z,1,0.784735,0,120,120,107,1,,,,,,,,
,,,,,,,,,,,,hotel,hidel,HOTEL,RL1,m,4439,2020-08-04_20h00.30.484,ColomboPrimingTaskB,2020.1.2,MacIntel,60,,,m,1,0.56483,0,121,121,27,1,,,,,,,,
,,,,,,,,,,,,stoze,sotze,STOZE,TLNW,z,4439,2020-08-04_20h00.30.484,ColomboPrimingTaskB,2020.1.2,MacIntel,60,,,z,1,0.603005,0,122,122,141,1,,,,,,,,
,,,,,,,,,,,,holiday,hafiday,HOLIDAY,RL1,m,4439,2020-08-04_20h00.30.484,ColomboPrimingTaskB,2020.1.2,MacIntel,60,,,m,1,0.63149,0,123,123,25,1,,,,,,,,
,,,,,,,,,,,,stomach,sotmach,STOMACH,TL1,m,4439,2020-08-04_20h00.30.484,ColomboPrimingTaskB,2020.1.2,MacIntel,60,,,m,1,0.55751,0,124,124,65,1,,,,,,,,
,,,,,,,,,,,,motter,mtoter,MOTTER,TLNW,z,4439,2020-08-04_20h00.30.484,ColomboPrimingTaskB,2020.1.2,MacIntel,60,,,z,1,0.95817,0,125,125,115,1,,,,,,,,
,,,,,,,,,,,,plastic,plasdoc,PLASTIC,RL2,m,4439,2020-08-04_20h00.30.484,ColomboPrimingTaskB,2020.1.2,MacIntel,60,,,m,1,0.631075,0,126,126,47,1,,,,,,,,
,,,,,,,,,,,,smooth,somoth,SMOOTH,TL1,m,4439,2020-08-04_20h00.30.484,ColomboPrimingTaskB,2020.1.2,MacIntel,60,,,m,1,0.5487,0,127,127,59,1,,,,,,,,
,,,,,,,,,,,,heaven,houven,HEAVEN,RL1,m,4439,2020-08-04_20h00.30.484,ColomboPrimingTaskB,2020.1.2,MacIntel,60,,,m,1,0.934215,0,128,128,23,1,,,,,,,,
,,,,,,,,,,,,chupter,chufler,CHUPTER,RLNW,z,4439,2020-08-04_20h00.30.484,ColomboPrimingTaskB,2020.1.2,MacIntel,60,,,z,1,0.960645,0,129,129,87,1,,,,,,,,
,,,,,,,,,,,,markles,marlkes,MARKLES,TLNW,z,4439,2020-08-04_20h00.30.484,ColomboPrimingTaskB,2020.1.2,MacIntel,60,,,z,1,1.532415,0,130,130,112,1,,,,,,,,
,,,,,,,,,,,,vegetable,vgeetable,VEGETABLE,TL1,m,4439,2020-08-04_20h00.30.484,ColomboPrimingTaskB,2020.1.2,MacIntel,60,,,m,1,0.925275,0,131,131,74,1,,,,,,,,
,,,,,,,,,,,,forest,fazest,FOREST,RL1,m,4439,2020-08-04_20h00.30.484,ColomboPrimingTaskB,2020.1.2,MacIntel,60,,,m,1,1.161665,0,132,132,20,1,,,,,,,,
,,,,,,,,,,,,curfomers,confomers,CURFOMERS,RLNW,z,4439,2020-08-04_20h00.30.484,ColomboPrimingTaskB,2020.1.2,MacIntel,60,,,z,1,2.64949,0,133,133,93,1,,,,,,,,
,,,,,,,,,,,,spailt,sparft,SPAILT,RLNW,z,4439,2020-08-04_20h00.30.484,ColomboPrimingTaskB,2020.1.2,MacIntel,60,,,z,1,1.233025,0,134,134,133,1,,,,,,,,
,,,,,,,,,,,,instant,irotant,INSTANT,RL1,m,4439,2020-08-04_20h00.30.484,ColomboPrimingTaskB,2020.1.2,MacIntel,60,,,m,1,1.25545,0,135,135,29,1,,,,,,,,
,,,,,,,,,,,,boach,beuch,BOACH,RLNW,z,4439,2020-08-04_20h00.30.484,ColomboPrimingTaskB,2020.1.2,MacIntel,60,,,z,1,2.164625,0,136,136,82,1,,,,,,,,
,,,,,,,,,,,,esferiment,efseriment,ESFERIMENT,TLNW,z,4439,2020-08-04_20h00.30.484,ColomboPrimingTaskB,2020.1.2,MacIntel,60,,,z,1,2.016395,0,137,137,100,1,,,,,,,,
,,,,,,,,,,,,heafs,hefas,HEAFS,TLNW,z,4439,2020-08-04_20h00.30.484,ColomboPrimingTaskB,2020.1.2,MacIntel,60,,,z,1,2.178375,0,138,138,106,1,,,,,,,,
,,,,,,,,,,,,outside,outsake,OUTSIDE,RL1,m,4439,2020-08-04_20h00.30.484,ColomboPrimingTaskB,2020.1.2,MacIntel,60,,,m,1,1.428525,0,139,139,39,1,,,,,,,,
,,,,,,,,,,,,chicken,chicekn,CHICKEN,TL2,m,4439,2020-08-04_20h00.30.484,ColomboPrimingTaskB,2020.1.2,MacIntel,60,,,m,1,0.72827,0,140,140,11,1,,,,,,,,
,,,,,,,,,,,,natural,nidural,NATURAL,RL1,m,4439,2020-08-04_20h00.30.484,ColomboPrimingTaskB,2020.1.2,MacIntel,60,,,m,1,1.966505,0,141,141,37,1,,,,,,,,
,,,,,,,,,,,,twotched,towtched,TWOTCHED,TLNW,z,4439,2020-08-04_20h00.30.484,ColomboPrimingTaskB,2020.1.2,MacIntel,60,,,z,1,0.83909,0,142,142,151,1,,,,,,,,
,,,,,,,,,,,,onerall,onuvall,ONERALL,RLNW,z,4439,2020-08-04_20h00.30.484,ColomboPrimingTaskB,2020.1.2,MacIntel,60,,,z,1,1.0175,0,143,143,117,1,,,,,,,,
,,,,,,,,,,,,cammied,cammoad,CAMMIED,RLNW,z,4439,2020-08-04_20h00.30.484,ColomboPrimingTaskB,2020.1.2,MacIntel,60,,,z,1,1.15413,0,144,144,85,1,,,,,,,,
,,,,,,,,,,,,spear,separ,SPEAR,TL1,m,4439,2020-08-04_20h00.30.484,ColomboPrimingTaskB,2020.1.2,MacIntel,60,,,m,1,0.7346,0,145,145,62,1,,,,,,,,
,,,,,,,,,,,,thought,thuoght,THOUGHT,TL1,m,4439,2020-08-04_20h00.30.484,ColomboPrimingTaskB,2020.1.2,MacIntel,60,,,m,1,0.72676,0,146,146,71,1,,,,,,,,
,,,,,,,,,,,,proffed,pauffed,PROFFED,RLNW,z,4439,2020-08-04_20h00.30.484,ColomboPrimingTaskB,2020.1.2,MacIntel,60,,,z,1,0.773815,0,147,147,122,1,,,,,,,,
,,,,,,,,,,,,trapped,tarpped,TRAPPED,TL1,m,4439,2020-08-04_20h00.30.484,ColomboPrimingTaskB,2020.1.2,MacIntel,60,,,m,1,0.898375,0,148,148,73,1,,,,,,,,
,,,,,,,,,,,,swump,suwmp,SWUMP,TLNW,z,4439,2020-08-04_20h00.30.484,ColomboPrimingTaskB,2020.1.2,MacIntel,60,,,z,1,0.76681,0,149,149,144,1,,,,,,,,
,,,,,,,,,,,,awful,awufl,AWFUL,TL2,m,4439,2020-08-04_20h00.30.484,ColomboPrimingTaskB,2020.1.2,MacIntel,60,,,m,1,0.72399,0,150,150,3,1,,,,,,,,
,,,,,,,,,,,,pench,putch,PENCH,RLNW,z,4439,2020-08-04_20h00.30.484,ColomboPrimingTaskB,2020.1.2,MacIntel,60,,,z,1,0.764345,0,151,151,118,1,,,,,,,,
,,,,,,,,,,,,biscuit,bisciut,BISCUIT,TL2,m,4439,2020-08-04_20h00.30.484,ColomboPrimingTaskB,2020.1.2,MacIntel,60,,,m,1,0.70236,0,152,152,7,1,,,,,,,,
,,,,,,,,,,,,crishing,conshing,CRISHING,RLNW,z,4439,2020-08-04_20h00.30.484,ColomboPrimingTaskB,2020.1.2,MacIntel,60,,,z,1,0.950835,0,153,153,90,1,,,,,,,,
,,,,,,,,,,,,sporks,spilks,SPORKS,RLNW,z,4439,2020-08-04_20h00.30.484,ColomboPrimingTaskB,2020.1.2,MacIntel,60,,,z,1,2.463625,0,154,154,132,1,,,,,,,,
,,,,,,,,,,,,midute,midtue,MIDUTE,TLNW,z,4439,2020-08-04_20h00.30.484,ColomboPrimingTaskB,2020.1.2,MacIntel,60,,,z,1,1.39102,0,155,155,114,1,,,,,,,,
,,,,,,,,,,,,,,,,,4439,2020-08-04_20h00.30.484,ColomboPrimingTaskB,2020.1.2,MacIntel,60,,,,,,,,,,,space,35.825005, many ,space,67.135075, everybody is going to sweat a lot during the sport,return,2.15119
