Space1.keys,Space1.rt,Space2.keys,Space2.rt,key_resp.keys,key_resp.corr,key_resp.rt,Practice_loop.thisRepN,Practice_loop.thisTrialN,Practice_loop.thisN,Practice_loop.thisIndex,Practice_loop.ran,Target1,Prime,Target2,Type,CorrAns,Participant I.D.,date,expName,psychopyVersion,OS,frameRate,Space3.keys,Space3.rt,key_resp_2.keys,key_resp_2.corr,key_resp_2.rt,trials.thisRepN,trials.thisTrialN,trials.thisN,trials.thisIndex,trials.ran,key_resp_3.keys,key_resp_3.rt,typedWord,key_resp_4.keys,key_resp_4.rt,typedWord2,key_resp_5.keys,key_resp_5.rt
space,2.948975,space,12.963105,z,1,1.265825,0,0,0,12,1,codfort,cofdort,CODFORT,NWTL,z,9430,2020-10-20_14h55.04.291,ColomboPrimingTaskB,2020.1.2,MacIntel,60,,,,,,,,,,,,,,,,,,
,,,,m,0,1.35677,0,1,1,21,1,campet,cantet,CAMPET,NWRL,z,9430,2020-10-20_14h55.04.291,ColomboPrimingTaskB,2020.1.2,MacIntel,60,,,,,,,,,,,,,,,,,,
,,,,z,1,0.845185,0,2,2,13,1,cobcert,cocbert,COBCERT,NWTL,z,9430,2020-10-20_14h55.04.291,ColomboPrimingTaskB,2020.1.2,MacIntel,60,,,,,,,,,,,,,,,,,,
,,,,z,1,0.775535,0,3,3,15,1,etephant,etpheant,ETEPHANT,NWTL,z,9430,2020-10-20_14h55.04.291,ColomboPrimingTaskB,2020.1.2,MacIntel,60,,,,,,,,,,,,,,,,,,
,,,,m,1,0.608845,0,4,4,10,1,twitter,twitofr,TWITTER,WRL,m,9430,2020-10-20_14h55.04.291,ColomboPrimingTaskB,2020.1.2,MacIntel,60,,,,,,,,,,,,,,,,,,
,,,,z,1,0.723475,0,5,5,18,1,alacus,afogus,ALACUS,NWRL,z,9430,2020-10-20_14h55.04.291,ColomboPrimingTaskB,2020.1.2,MacIntel,60,,,,,,,,,,,,,,,,,,
,,,,m,1,0.74648,0,6,6,7,1,nursery,nuftery,NURSERY,WRL,m,9430,2020-10-20_14h55.04.291,ColomboPrimingTaskB,2020.1.2,MacIntel,60,,,,,,,,,,,,,,,,,,
,,,,z,1,0.715265,0,7,7,23,1,cnipper,crupper,CNIPPER,NWRL,z,9430,2020-10-20_14h55.04.291,ColomboPrimingTaskB,2020.1.2,MacIntel,60,,,,,,,,,,,,,,,,,,
,,,,m,1,0.71661,0,8,8,1,1,elderflower,elferdower,ELDERFLOWER,WTL,m,9430,2020-10-20_14h55.04.291,ColomboPrimingTaskB,2020.1.2,MacIntel,60,,,,,,,,,,,,,,,,,,
,,,,m,1,0.681955,0,9,9,3,1,fifty,fitfy,FIFTY,WTL,m,9430,2020-10-20_14h55.04.291,ColomboPrimingTaskB,2020.1.2,MacIntel,60,,,,,,,,,,,,,,,,,,
,,,,z,1,1.88244,0,10,10,22,1,chfistmas,chrustmas,CHFISTMAS,NWRL,z,9430,2020-10-20_14h55.04.291,ColomboPrimingTaskB,2020.1.2,MacIntel,60,,,,,,,,,,,,,,,,,,
,,,,z,1,0.58838,0,11,11,19,1,bacoon,barkon,BACOON,NWRL,z,9430,2020-10-20_14h55.04.291,ColomboPrimingTaskB,2020.1.2,MacIntel,60,,,,,,,,,,,,,,,,,,
,,,,m,1,1.56494,0,12,12,0,1,coral,croal,CORAL,WTL,m,9430,2020-10-20_14h55.04.291,ColomboPrimingTaskB,2020.1.2,MacIntel,60,,,,,,,,,,,,,,,,,,
,,,,m,1,0.61614,0,13,13,5,1,library,lirbary,LIBRARY,WTL,m,9430,2020-10-20_14h55.04.291,ColomboPrimingTaskB,2020.1.2,MacIntel,60,,,,,,,,,,,,,,,,,,
,,,,m,1,0.52859,0,14,14,2,1,festival,fetsival,FESTIVAL,WTL,m,9430,2020-10-20_14h55.04.291,ColomboPrimingTaskB,2020.1.2,MacIntel,60,,,,,,,,,,,,,,,,,,
,,,,m,1,0.450495,0,15,15,8,1,picture,pimrure,PICTURE,WRL,m,9430,2020-10-20_14h55.04.291,ColomboPrimingTaskB,2020.1.2,MacIntel,60,,,,,,,,,,,,,,,,,,
,,,,z,1,0.653625,0,16,16,20,1,bubbfes,buddfes,BUBBFES,NWRL,z,9430,2020-10-20_14h55.04.291,ColomboPrimingTaskB,2020.1.2,MacIntel,60,,,,,,,,,,,,,,,,,,
,,,,m,0,0.56658,0,17,17,17,1,flech,felch,FLECH,NWTL,z,9430,2020-10-20_14h55.04.291,ColomboPrimingTaskB,2020.1.2,MacIntel,60,,,,,,,,,,,,,,,,,,
,,,,m,1,0.56479,0,18,18,4,1,laundry,laudnry,LAUNDRY,WTL,m,9430,2020-10-20_14h55.04.291,ColomboPrimingTaskB,2020.1.2,MacIntel,60,,,,,,,,,,,,,,,,,,
,,,,m,1,0.567405,0,19,19,6,1,monopoly,mogomoly,MONOPOLY,WRL,m,9430,2020-10-20_14h55.04.291,ColomboPrimingTaskB,2020.1.2,MacIntel,60,,,,,,,,,,,,,,,,,,
,,,,m,1,0.64875,0,20,20,11,1,violin,viprin,VIOLIN,WRL,m,9430,2020-10-20_14h55.04.291,ColomboPrimingTaskB,2020.1.2,MacIntel,60,,,,,,,,,,,,,,,,,,
,,,,z,1,0.886,0,21,21,16,1,clirate,crilate,CLIRATE,NWTL,z,9430,2020-10-20_14h55.04.291,ColomboPrimingTaskB,2020.1.2,MacIntel,60,,,,,,,,,,,,,,,,,,
,,,,m,0,0.49852,0,22,22,14,1,dinital,ditinal,DINITAL,NWTL,z,9430,2020-10-20_14h55.04.291,ColomboPrimingTaskB,2020.1.2,MacIntel,60,,,,,,,,,,,,,,,,,,
,,,,m,1,0.61559,0,23,23,9,1,parcel,pafbel,PARCEL,WRL,m,9430,2020-10-20_14h55.04.291,ColomboPrimingTaskB,2020.1.2,MacIntel,60,,,,,,,,,,,,,,,,,,
,,,,,,,,,,,,hoafe,hofae,HOAFE,TLNW,z,9430,2020-10-20_14h55.04.291,ColomboPrimingTaskB,2020.1.2,MacIntel,60,space,10.988795,z,1,0.582725,0,0,0,107,1,,,,,,,,
,,,,,,,,,,,,difentions,difortions,DIFENTIONS,RLNW,z,9430,2020-10-20_14h55.04.291,ColomboPrimingTaskB,2020.1.2,MacIntel,60,,,z,1,0.930385,0,1,1,95,1,,,,,,,,
,,,,,,,,,,,,motter,mtoter,MOTTER,TLNW,z,9430,2020-10-20_14h55.04.291,ColomboPrimingTaskB,2020.1.2,MacIntel,60,,,z,1,0.582385,0,2,2,115,1,,,,,,,,
,,,,,,,,,,,,vegetable,vgeetable,VEGETABLE,TL1,m,9430,2020-10-20_14h55.04.291,ColomboPrimingTaskB,2020.1.2,MacIntel,60,,,m,1,0.527855,0,3,3,74,1,,,,,,,,
,,,,,,,,,,,,story,sotry,STORY,TL1,m,9430,2020-10-20_14h55.04.291,ColomboPrimingTaskB,2020.1.2,MacIntel,60,,,z,0,0.514675,0,4,4,66,1,,,,,,,,
,,,,,,,,,,,,woary,woray,WOARY,TLNW,z,9430,2020-10-20_14h55.04.291,ColomboPrimingTaskB,2020.1.2,MacIntel,60,,,z,1,0.58905,0,5,5,153,1,,,,,,,,
,,,,,,,,,,,,markles,marlkes,MARKLES,TLNW,z,9430,2020-10-20_14h55.04.291,ColomboPrimingTaskB,2020.1.2,MacIntel,60,,,z,1,0.828965,0,6,6,112,1,,,,,,,,
,,,,,,,,,,,,yowned,yonwed,YOWNED,TLNW,z,9430,2020-10-20_14h55.04.291,ColomboPrimingTaskB,2020.1.2,MacIntel,60,,,m,0,1.048735,0,7,7,155,1,,,,,,,,
,,,,,,,,,,,,loarnt,lorant,LOARNT,TLNW,z,9430,2020-10-20_14h55.04.291,ColomboPrimingTaskB,2020.1.2,MacIntel,60,,,z,1,0.83248,0,8,8,110,1,,,,,,,,
,,,,,,,,,,,,winter,wniter,WINTER,TL1,m,9430,2020-10-20_14h55.04.291,ColomboPrimingTaskB,2020.1.2,MacIntel,60,,,m,1,0.464765,0,9,9,77,1,,,,,,,,
,,,,,,,,,,,,blanket,blanekt,BLANKET,TL2,m,9430,2020-10-20_14h55.04.291,ColomboPrimingTaskB,2020.1.2,MacIntel,60,,,m,1,0.53533,0,10,10,8,1,,,,,,,,
,,,,,,,,,,,,gniching,ginching,GNICHING,TLNW,z,9430,2020-10-20_14h55.04.291,ColomboPrimingTaskB,2020.1.2,MacIntel,60,,,z,1,0.664435,0,11,11,104,1,,,,,,,,
,,,,,,,,,,,,bidger,bofger,BIDGER,RLNW,z,9430,2020-10-20_14h55.04.291,ColomboPrimingTaskB,2020.1.2,MacIntel,60,,,z,1,0.648995,0,12,12,81,1,,,,,,,,
,,,,,,,,,,,,leopard,luipard,LEOPARD,RL1,m,9430,2020-10-20_14h55.04.291,ColomboPrimingTaskB,2020.1.2,MacIntel,60,,,m,1,0.598735,0,13,13,32,1,,,,,,,,
,,,,,,,,,,,,summer,smumer,SUMMER,TL1,m,9430,2020-10-20_14h55.04.291,ColomboPrimingTaskB,2020.1.2,MacIntel,60,,,m,1,0.514885,0,14,14,67,1,,,,,,,,
,,,,,,,,,,,,tomay,toamy,TOMAY,TLNW,z,9430,2020-10-20_14h55.04.291,ColomboPrimingTaskB,2020.1.2,MacIntel,60,,,z,1,0.531035,0,15,15,149,1,,,,,,,,
,,,,,,,,,,,,referee,refenie,REFEREE,RL2,m,9430,2020-10-20_14h55.04.291,ColomboPrimingTaskB,2020.1.2,MacIntel,60,,,m,1,0.71566,0,16,16,52,1,,,,,,,,
,,,,,,,,,,,,cammied,cammoad,CAMMIED,RLNW,z,9430,2020-10-20_14h55.04.291,ColomboPrimingTaskB,2020.1.2,MacIntel,60,,,z,1,0.498885,0,17,17,85,1,,,,,,,,
,,,,,,,,,,,,drink,drnik,DRINK,TL2,m,9430,2020-10-20_14h55.04.291,ColomboPrimingTaskB,2020.1.2,MacIntel,60,,,m,1,0.515485,0,18,18,14,1,,,,,,,,
,,,,,,,,,,,,swump,suwmp,SWUMP,TLNW,z,9430,2020-10-20_14h55.04.291,ColomboPrimingTaskB,2020.1.2,MacIntel,60,,,z,1,0.483925,0,19,19,144,1,,,,,,,,
,,,,,,,,,,,,round,roasd,ROUND,RL2,m,9430,2020-10-20_14h55.04.291,ColomboPrimingTaskB,2020.1.2,MacIntel,60,,,m,1,0.714585,0,20,20,55,1,,,,,,,,
,,,,,,,,,,,,forest,fazest,FOREST,RL1,m,9430,2020-10-20_14h55.04.291,ColomboPrimingTaskB,2020.1.2,MacIntel,60,,,z,0,0.531495,0,21,21,20,1,,,,,,,,
,,,,,,,,,,,,robber,roblar,ROBBER,RL2,m,9430,2020-10-20_14h55.04.291,ColomboPrimingTaskB,2020.1.2,MacIntel,60,,,m,1,0.598955,0,22,22,54,1,,,,,,,,
,,,,,,,,,,,,spailt,sparft,SPAILT,RLNW,z,9430,2020-10-20_14h55.04.291,ColomboPrimingTaskB,2020.1.2,MacIntel,60,,,z,1,0.765235,0,23,23,133,1,,,,,,,,
,,,,,,,,,,,,tronch,tornch,TRONCH,TLNW,z,9430,2020-10-20_14h55.04.291,ColomboPrimingTaskB,2020.1.2,MacIntel,60,,,z,1,0.56549,0,24,24,150,1,,,,,,,,
,,,,,,,,,,,,thirns,thrins,THIRNS,TLNW,z,9430,2020-10-20_14h55.04.291,ColomboPrimingTaskB,2020.1.2,MacIntel,60,,,z,1,0.582185,0,25,25,148,1,,,,,,,,
,,,,,,,,,,,,hibernate,hafernate,HIBERNATE,RL1,m,9430,2020-10-20_14h55.04.291,ColomboPrimingTaskB,2020.1.2,MacIntel,60,,,m,1,0.599425,0,26,26,24,1,,,,,,,,
,,,,,,,,,,,,sibble,sibode,SIBBLE,RLNW,z,9430,2020-10-20_14h55.04.291,ColomboPrimingTaskB,2020.1.2,MacIntel,60,,,z,1,0.59826,0,27,27,129,1,,,,,,,,
,,,,,,,,,,,,winner,wniner,WINNER,TL1,m,9430,2020-10-20_14h55.04.291,ColomboPrimingTaskB,2020.1.2,MacIntel,60,,,m,1,0.60021,0,28,28,76,1,,,,,,,,
,,,,,,,,,,,,match,myrch,MATCH,RL1,m,9430,2020-10-20_14h55.04.291,ColomboPrimingTaskB,2020.1.2,MacIntel,60,,,m,1,0.731695,0,29,29,35,1,,,,,,,,
,,,,,,,,,,,,taidor,tiador,TAIDOR,TLNW,z,9430,2020-10-20_14h55.04.291,ColomboPrimingTaskB,2020.1.2,MacIntel,60,,,z,1,0.548815,0,30,30,145,1,,,,,,,,
,,,,,,,,,,,,snack,sanck,SNACK,TL1,m,9430,2020-10-20_14h55.04.291,ColomboPrimingTaskB,2020.1.2,MacIntel,60,,,m,1,0.465375,0,31,31,60,1,,,,,,,,
,,,,,,,,,,,,swallow,sawllow,SWALLOW,TL1,m,9430,2020-10-20_14h55.04.291,ColomboPrimingTaskB,2020.1.2,MacIntel,60,,,m,1,0.486335,0,32,32,69,1,,,,,,,,
,,,,,,,,,,,,spear,separ,SPEAR,TL1,m,9430,2020-10-20_14h55.04.291,ColomboPrimingTaskB,2020.1.2,MacIntel,60,,,m,1,0.515635,0,33,33,62,1,,,,,,,,
,,,,,,,,,,,,orchestra,onthestra,ORCHESTRA,RL1,m,9430,2020-10-20_14h55.04.291,ColomboPrimingTaskB,2020.1.2,MacIntel,60,,,m,1,0.58342,0,34,34,38,1,,,,,,,,
,,,,,,,,,,,,prince,primse,PRINCE,RL2,m,9430,2020-10-20_14h55.04.291,ColomboPrimingTaskB,2020.1.2,MacIntel,60,,,m,1,0.59801,0,35,35,50,1,,,,,,,,
,,,,,,,,,,,,wilked,wikled,WILKED,TLNW,z,9430,2020-10-20_14h55.04.291,ColomboPrimingTaskB,2020.1.2,MacIntel,60,,,z,1,0.499065,0,36,36,152,1,,,,,,,,
,,,,,,,,,,,,ghost,glust,GHOST,RL1,m,9430,2020-10-20_14h55.04.291,ColomboPrimingTaskB,2020.1.2,MacIntel,60,,,m,1,0.44984,0,37,37,22,1,,,,,,,,
,,,,,,,,,,,,pevuliar,panuliar,PEVULIAR,RLNW,z,9430,2020-10-20_14h55.04.291,ColomboPrimingTaskB,2020.1.2,MacIntel,60,,,z,1,0.58289,0,38,38,119,1,,,,,,,,
,,,,,,,,,,,,proffed,pauffed,PROFFED,RLNW,z,9430,2020-10-20_14h55.04.291,ColomboPrimingTaskB,2020.1.2,MacIntel,60,,,z,1,0.51866,0,39,39,122,1,,,,,,,,
,,,,,,,,,,,,kitchen,kolchen,KITCHEN,RL1,m,9430,2020-10-20_14h55.04.291,ColomboPrimingTaskB,2020.1.2,MacIntel,60,,,m,1,0.51617,0,40,40,30,1,,,,,,,,
,,,,,,,,,,,,crishing,conshing,CRISHING,RLNW,z,9430,2020-10-20_14h55.04.291,ColomboPrimingTaskB,2020.1.2,MacIntel,60,,,z,1,0.654525,0,41,41,90,1,,,,,,,,
,,,,,,,,,,,,sporks,spilks,SPORKS,RLNW,z,9430,2020-10-20_14h55.04.291,ColomboPrimingTaskB,2020.1.2,MacIntel,60,,,z,1,0.66573,0,42,42,132,1,,,,,,,,
,,,,,,,,,,,,canivan,canuran,CANIVAN,RLNW,z,9430,2020-10-20_14h55.04.291,ColomboPrimingTaskB,2020.1.2,MacIntel,60,,,z,1,0.764475,0,43,43,84,1,,,,,,,,
,,,,,,,,,,,,awful,awufl,AWFUL,TL2,m,9430,2020-10-20_14h55.04.291,ColomboPrimingTaskB,2020.1.2,MacIntel,60,,,m,1,0.532605,0,44,44,3,1,,,,,,,,
,,,,,,,,,,,,crunphy,clinphy,CRUNPHY,RLNW,z,9430,2020-10-20_14h55.04.291,ColomboPrimingTaskB,2020.1.2,MacIntel,60,,,z,1,0.68534,0,45,45,92,1,,,,,,,,
,,,,,,,,,,,,floats,flotas,FLOATS,TL2,m,9430,2020-10-20_14h55.04.291,ColomboPrimingTaskB,2020.1.2,MacIntel,60,,,m,1,0.64849,0,46,46,17,1,,,,,,,,
,,,,,,,,,,,,heaven,houven,HEAVEN,RL1,m,9430,2020-10-20_14h55.04.291,ColomboPrimingTaskB,2020.1.2,MacIntel,60,,,m,1,0.46552,0,47,47,23,1,,,,,,,,
,,,,,,,,,,,,rimble,rirkle,RIMBLE,RLNW,z,9430,2020-10-20_14h55.04.291,ColomboPrimingTaskB,2020.1.2,MacIntel,60,,,z,1,0.732615,0,48,48,127,1,,,,,,,,
,,,,,,,,,,,,pench,putch,PENCH,RLNW,z,9430,2020-10-20_14h55.04.291,ColomboPrimingTaskB,2020.1.2,MacIntel,60,,,z,1,0.68246,0,49,49,118,1,,,,,,,,
,,,,,,,,,,,,singer,sintor,SINGER,RL2,m,9430,2020-10-20_14h55.04.291,ColomboPrimingTaskB,2020.1.2,MacIntel,60,,,m,1,0.632115,0,50,50,57,1,,,,,,,,
,,,,,,,,,,,,holmits,homlits,HOLMITS,TLNW,z,9430,2020-10-20_14h55.04.291,ColomboPrimingTaskB,2020.1.2,MacIntel,60,,,z,1,0.853155,0,51,51,108,1,,,,,,,,
,,,,,,,,,,,,enezies,eneizes,ENEZIES,TLNW,z,9430,2020-10-20_14h55.04.291,ColomboPrimingTaskB,2020.1.2,MacIntel,60,,,z,1,0.5973,0,52,52,98,1,,,,,,,,
,,,,,,,,,,,,spoff,sopff,SPOFF,TLNW,z,9430,2020-10-20_14h55.04.291,ColomboPrimingTaskB,2020.1.2,MacIntel,60,,,z,1,0.61643,0,53,53,143,1,,,,,,,,
,,,,,,,,,,,,wardrobe,wradrobe,WARDROBE,TL1,m,9430,2020-10-20_14h55.04.291,ColomboPrimingTaskB,2020.1.2,MacIntel,60,,,m,1,0.56862,0,54,54,75,1,,,,,,,,
,,,,,,,,,,,,plastic,plasdoc,PLASTIC,RL2,m,9430,2020-10-20_14h55.04.291,ColomboPrimingTaskB,2020.1.2,MacIntel,60,,,m,1,0.61796,0,55,55,47,1,,,,,,,,
,,,,,,,,,,,,crockle,chickle,CROCKLE,RLNW,z,9430,2020-10-20_14h55.04.291,ColomboPrimingTaskB,2020.1.2,MacIntel,60,,,z,1,0.60034,0,56,56,89,1,,,,,,,,
,,,,,,,,,,,,roinwater,raunwater,ROINWATER,RLNW,z,9430,2020-10-20_14h55.04.291,ColomboPrimingTaskB,2020.1.2,MacIntel,60,,,z,1,0.664175,0,57,57,123,1,,,,,,,,
,,,,,,,,,,,,penguin,pengoan,PENGUIN,RL2,m,9430,2020-10-20_14h55.04.291,ColomboPrimingTaskB,2020.1.2,MacIntel,60,,,m,1,0.816135,0,58,58,43,1,,,,,,,,
,,,,,,,,,,,,stoff,skaff,STOFF,RLNW,z,9430,2020-10-20_14h55.04.291,ColomboPrimingTaskB,2020.1.2,MacIntel,60,,,z,1,0.569675,0,59,59,134,1,,,,,,,,
,,,,,,,,,,,,senved,sevned,SENVED,TLNW,z,9430,2020-10-20_14h55.04.291,ColomboPrimingTaskB,2020.1.2,MacIntel,60,,,z,1,0.665185,0,60,60,101,1,,,,,,,,
,,,,,,,,,,,,basket,basekt,BASKET,TL2,m,9430,2020-10-20_14h55.04.291,ColomboPrimingTaskB,2020.1.2,MacIntel,60,,,m,1,0.536,0,61,61,4,1,,,,,,,,
,,,,,,,,,,,,petrol,petnal,PETROL,RL2,m,9430,2020-10-20_14h55.04.291,ColomboPrimingTaskB,2020.1.2,MacIntel,60,,,m,1,0.76478,0,62,62,44,1,,,,,,,,
,,,,,,,,,,,,pavement,pavemist,PAVEMENT,RL2,m,9430,2020-10-20_14h55.04.291,ColomboPrimingTaskB,2020.1.2,MacIntel,60,,,m,1,0.58603,0,63,63,42,1,,,,,,,,
,,,,,,,,,,,,foreign,fumeign,FOREIGN,TL2,m,9430,2020-10-20_14h55.04.291,ColomboPrimingTaskB,2020.1.2,MacIntel,60,,,m,1,0.59793,0,64,64,19,1,,,,,,,,
,,,,,,,,,,,,market,motket,MARKET,RL1,m,9430,2020-10-20_14h55.04.291,ColomboPrimingTaskB,2020.1.2,MacIntel,60,,,m,1,0.489015,0,65,65,34,1,,,,,,,,
,,,,,,,,,,,,dentist,dentsit,DENTIST,TL2,m,9430,2020-10-20_14h55.04.291,ColomboPrimingTaskB,2020.1.2,MacIntel,60,,,m,1,0.499655,0,66,66,13,1,,,,,,,,
,,,,,,,,,,,,rolief,rolalf,ROLIEF,RLNW,z,9430,2020-10-20_14h55.04.291,ColomboPrimingTaskB,2020.1.2,MacIntel,60,,,z,1,0.535545,0,67,67,125,1,,,,,,,,
,,,,,,,,,,,,spirit,siprit,SPIRIT,TL1,m,9430,2020-10-20_14h55.04.291,ColomboPrimingTaskB,2020.1.2,MacIntel,60,,,m,1,0.665335,0,68,68,63,1,,,,,,,,
,,,,,,,,,,,,return,retown,RETURN,RL2,m,9430,2020-10-20_14h55.04.291,ColomboPrimingTaskB,2020.1.2,MacIntel,60,,,m,1,0.780805,0,69,69,53,1,,,,,,,,
,,,,,,,,,,,,boach,beuch,BOACH,RLNW,z,9430,2020-10-20_14h55.04.291,ColomboPrimingTaskB,2020.1.2,MacIntel,60,,,z,1,0.599945,0,70,70,82,1,,,,,,,,
,,,,,,,,,,,,holiday,hafiday,HOLIDAY,RL1,m,9430,2020-10-20_14h55.04.291,ColomboPrimingTaskB,2020.1.2,MacIntel,60,,,m,1,0.65034,0,71,71,25,1,,,,,,,,
,,,,,,,,,,,,hotel,hidel,HOTEL,RL1,m,9430,2020-10-20_14h55.04.291,ColomboPrimingTaskB,2020.1.2,MacIntel,60,,,m,1,0.53653,0,72,72,27,1,,,,,,,,
,,,,,,,,,,,,skirping,skawping,SKIRPING,RLNW,z,9430,2020-10-20_14h55.04.291,ColomboPrimingTaskB,2020.1.2,MacIntel,60,,,z,1,0.68458,0,73,73,131,1,,,,,,,,
,,,,,,,,,,,,believe,belivee,BELIEVE,TL2,m,9430,2020-10-20_14h55.04.291,ColomboPrimingTaskB,2020.1.2,MacIntel,60,,,m,1,0.599205,0,74,74,5,1,,,,,,,,
,,,,,,,,,,,,forty,fumty,FORTY,RL1,m,9430,2020-10-20_14h55.04.291,ColomboPrimingTaskB,2020.1.2,MacIntel,60,,,m,1,0.61581,0,75,75,21,1,,,,,,,,
,,,,,,,,,,,,influence,imbluence,INFLUENCE,RL1,m,9430,2020-10-20_14h55.04.291,ColomboPrimingTaskB,2020.1.2,MacIntel,60,,,m,1,0.581395,0,76,76,28,1,,,,,,,,
,,,,,,,,,,,,standust,stadnust,STANDUST,TLNW,z,9430,2020-10-20_14h55.04.291,ColomboPrimingTaskB,2020.1.2,MacIntel,60,,,z,1,0.68699,0,77,77,138,1,,,,,,,,
,,,,,,,,,,,,mirtioned,mitrioned,MIRTIONED,TLNW,z,9430,2020-10-20_14h55.04.291,ColomboPrimingTaskB,2020.1.2,MacIntel,60,,,z,1,0.59812,0,78,78,113,1,,,,,,,,
,,,,,,,,,,,,lopely,lopley,LOPELY,TLNW,z,9430,2020-10-20_14h55.04.291,ColomboPrimingTaskB,2020.1.2,MacIntel,60,,,z,1,0.78795,0,79,79,111,1,,,,,,,,
,,,,,,,,,,,,flazer,falzer,FLAZER,TLNW,z,9430,2020-10-20_14h55.04.291,ColomboPrimingTaskB,2020.1.2,MacIntel,60,,,z,1,0.599245,0,80,80,102,1,,,,,,,,
,,,,,,,,,,,,twotched,towtched,TWOTCHED,TLNW,z,9430,2020-10-20_14h55.04.291,ColomboPrimingTaskB,2020.1.2,MacIntel,60,,,m,0,0.93143,0,81,81,151,1,,,,,,,,
,,,,,,,,,,,,sturfish,strufish,STURFISH,TLNW,z,9430,2020-10-20_14h55.04.291,ColomboPrimingTaskB,2020.1.2,MacIntel,60,,,m,0,0.665135,0,82,82,139,1,,,,,,,,
,,,,,,,,,,,,niffling,nilffing,NIFFLING,TLNW,z,9430,2020-10-20_14h55.04.291,ColomboPrimingTaskB,2020.1.2,MacIntel,60,,,z,1,0.749525,0,83,83,116,1,,,,,,,,
,,,,,,,,,,,,skiffed,skiftad,SKIFFED,RLNW,z,9430,2020-10-20_14h55.04.291,ColomboPrimingTaskB,2020.1.2,MacIntel,60,,,z,1,0.84852,0,84,84,130,1,,,,,,,,
,,,,,,,,,,,,entry,enrty,ENTRY,TL2,m,9430,2020-10-20_14h55.04.291,ColomboPrimingTaskB,2020.1.2,MacIntel,60,,,m,1,0.598345,0,85,85,15,1,,,,,,,,
,,,,,,,,,,,,asbrunaut,andrunaut,ASBRUNAUT,RLNW,z,9430,2020-10-20_14h55.04.291,ColomboPrimingTaskB,2020.1.2,MacIntel,60,,,z,1,0.78481,0,86,86,80,1,,,,,,,,
,,,,,,,,,,,,stoze,sotze,STOZE,TLNW,z,9430,2020-10-20_14h55.04.291,ColomboPrimingTaskB,2020.1.2,MacIntel,60,,,z,1,0.515955,0,87,87,141,1,,,,,,,,
,,,,,,,,,,,,natural,nidural,NATURAL,RL1,m,9430,2020-10-20_14h55.04.291,ColomboPrimingTaskB,2020.1.2,MacIntel,60,,,m,1,0.580475,0,88,88,37,1,,,,,,,,
,,,,,,,,,,,,stomach,sotmach,STOMACH,TL1,m,9430,2020-10-20_14h55.04.291,ColomboPrimingTaskB,2020.1.2,MacIntel,60,,,m,1,0.533425,0,89,89,65,1,,,,,,,,
,,,,,,,,,,,,burning,burnnig,BURNING,TL2,m,9430,2020-10-20_14h55.04.291,ColomboPrimingTaskB,2020.1.2,MacIntel,60,,,m,1,0.500995,0,90,90,9,1,,,,,,,,
,,,,,,,,,,,,smooth,somoth,SMOOTH,TL1,m,9430,2020-10-20_14h55.04.291,ColomboPrimingTaskB,2020.1.2,MacIntel,60,,,m,1,0.56585,0,91,91,59,1,,,,,,,,
,,,,,,,,,,,,pigeon,pigain,PIGEON,RL2,m,9430,2020-10-20_14h55.04.291,ColomboPrimingTaskB,2020.1.2,MacIntel,60,,,z,0,0.818005,0,92,92,45,1,,,,,,,,
,,,,,,,,,,,,knorn,konrn,KNORN,TLNW,z,9430,2020-10-20_14h55.04.291,ColomboPrimingTaskB,2020.1.2,MacIntel,60,,,z,1,0.55307,0,93,93,109,1,,,,,,,,
,,,,,,,,,,,,instant,irotant,INSTANT,RL1,m,9430,2020-10-20_14h55.04.291,ColomboPrimingTaskB,2020.1.2,MacIntel,60,,,m,1,0.72018,0,94,94,29,1,,,,,,,,
,,,,,,,,,,,,tourist,tuorist,TOURIST,TL1,m,9430,2020-10-20_14h55.04.291,ColomboPrimingTaskB,2020.1.2,MacIntel,60,,,m,1,1.04954,0,95,95,72,1,,,,,,,,
,,,,,,,,,,,,heafs,hefas,HEAFS,TLNW,z,9430,2020-10-20_14h55.04.291,ColomboPrimingTaskB,2020.1.2,MacIntel,60,,,z,1,0.615825,0,96,96,106,1,,,,,,,,
,,,,,,,,,,,,callage,calluze,CALLAGE,RLNW,z,9430,2020-10-20_14h55.04.291,ColomboPrimingTaskB,2020.1.2,MacIntel,60,,,z,1,0.71539,0,97,97,83,1,,,,,,,,
,,,,,,,,,,,,trapped,tarpped,TRAPPED,TL1,m,9430,2020-10-20_14h55.04.291,ColomboPrimingTaskB,2020.1.2,MacIntel,60,,,m,1,0.670535,0,98,98,73,1,,,,,,,,
,,,,,,,,,,,,caterpiddar,catonpiddar,CATERPIDDAR,RLNW,z,9430,2020-10-20_14h55.04.291,ColomboPrimingTaskB,2020.1.2,MacIntel,60,,,z,1,0.88197,0,99,99,86,1,,,,,,,,
,,,,,,,,,,,,dimotaurs,dizetaurs,DIMOTAURS,RLNW,z,9430,2020-10-20_14h55.04.291,ColomboPrimingTaskB,2020.1.2,MacIntel,60,,,z,1,0.76674,0,100,100,94,1,,,,,,,,
,,,,,,,,,,,,thought,thuoght,THOUGHT,TL1,m,9430,2020-10-20_14h55.04.291,ColomboPrimingTaskB,2020.1.2,MacIntel,60,,,m,1,0.61458,0,101,101,71,1,,,,,,,,
,,,,,,,,,,,,renorded,renaided,RENORDED,RLNW,z,9430,2020-10-20_14h55.04.291,ColomboPrimingTaskB,2020.1.2,MacIntel,60,,,z,1,0.56574,0,102,102,124,1,,,,,,,,
,,,,,,,,,,,,apting,azking,APTING,RLNW,z,9430,2020-10-20_14h55.04.291,ColomboPrimingTaskB,2020.1.2,MacIntel,60,,,m,0,1.03203,0,103,103,78,1,,,,,,,,
,,,,,,,,,,,,stull,stlul,STULL,TLNW,z,9430,2020-10-20_14h55.04.291,ColomboPrimingTaskB,2020.1.2,MacIntel,60,,,z,1,0.636415,0,104,104,136,1,,,,,,,,
,,,,,,,,,,,,fulore,fluore,FULORE,TLNW,z,9430,2020-10-20_14h55.04.291,ColomboPrimingTaskB,2020.1.2,MacIntel,60,,,z,1,0.782335,0,105,105,103,1,,,,,,,,
,,,,,,,,,,,,scratch,scronch,SCRATCH,RL2,m,9430,2020-10-20_14h55.04.291,ColomboPrimingTaskB,2020.1.2,MacIntel,60,,,m,1,0.998995,0,106,106,56,1,,,,,,,,
,,,,,,,,,,,,around,aronud,AROUND,TL2,m,9430,2020-10-20_14h55.04.291,ColomboPrimingTaskB,2020.1.2,MacIntel,60,,,m,1,0.58163,0,107,107,2,1,,,,,,,,
,,,,,,,,,,,,onerall,onuvall,ONERALL,RLNW,z,9430,2020-10-20_14h55.04.291,ColomboPrimingTaskB,2020.1.2,MacIntel,60,,,z,1,0.731885,0,108,108,117,1,,,,,,,,
,,,,,,,,,,,,chupter,chufler,CHUPTER,RLNW,z,9430,2020-10-20_14h55.04.291,ColomboPrimingTaskB,2020.1.2,MacIntel,60,,,z,1,0.74821,0,109,109,87,1,,,,,,,,
,,,,,,,,,,,,grufes,gurfes,GRUFES,TLNW,z,9430,2020-10-20_14h55.04.291,ColomboPrimingTaskB,2020.1.2,MacIntel,60,,,z,1,0.59832,0,110,110,105,1,,,,,,,,
,,,,,,,,,,,,midute,midtue,MIDUTE,TLNW,z,9430,2020-10-20_14h55.04.291,ColomboPrimingTaskB,2020.1.2,MacIntel,60,,,z,1,0.62205,0,111,111,114,1,,,,,,,,
,,,,,,,,,,,,patient,patiort,PATIENT,RL2,m,9430,2020-10-20_14h55.04.291,ColomboPrimingTaskB,2020.1.2,MacIntel,60,,,m,1,0.73845,0,112,112,41,1,,,,,,,,
,,,,,,,,,,,,legend,lafend,LEGEND,RL1,m,9430,2020-10-20_14h55.04.291,ColomboPrimingTaskB,2020.1.2,MacIntel,60,,,m,1,0.570665,0,113,113,31,1,,,,,,,,
,,,,,,,,,,,,snake,sanke,SNAKE,TL1,m,9430,2020-10-20_14h55.04.291,ColomboPrimingTaskB,2020.1.2,MacIntel,60,,,m,1,0.632365,0,114,114,61,1,,,,,,,,
,,,,,,,,,,,,talking,tlaking,TALKING,TL1,m,9430,2020-10-20_14h55.04.291,ColomboPrimingTaskB,2020.1.2,MacIntel,60,,,m,1,0.800025,0,115,115,70,1,,,,,,,,
,,,,,,,,,,,,scraff,stoaff,SCRAFF,RLNW,z,9430,2020-10-20_14h55.04.291,ColomboPrimingTaskB,2020.1.2,MacIntel,60,,,m,0,0.99815,0,116,116,128,1,,,,,,,,
,,,,,,,,,,,,lying,luang,LYING,RL1,m,9430,2020-10-20_14h55.04.291,ColomboPrimingTaskB,2020.1.2,MacIntel,60,,,m,1,1.320295,0,117,117,33,1,,,,,,,,
,,,,,,,,,,,,rolin,rofan,ROLIN,RLNW,z,9430,2020-10-20_14h55.04.291,ColomboPrimingTaskB,2020.1.2,MacIntel,60,,,z,1,0.81415,0,118,118,126,1,,,,,,,,
,,,,,,,,,,,,dufty,dutfy,DUFTY,TLNW,z,9430,2020-10-20_14h55.04.291,ColomboPrimingTaskB,2020.1.2,MacIntel,60,,,z,1,0.93707,0,119,119,97,1,,,,,,,,
,,,,,,,,,,,,chicken,chicekn,CHICKEN,TL2,m,9430,2020-10-20_14h55.04.291,ColomboPrimingTaskB,2020.1.2,MacIntel,60,,,m,1,0.651795,0,120,120,11,1,,,,,,,,
,,,,,,,,,,,,powerful,powerdil,POWERFUL,RL2,m,9430,2020-10-20_14h55.04.291,ColomboPrimingTaskB,2020.1.2,MacIntel,60,,,m,1,0.737655,0,121,121,49,1,,,,,,,,
,,,,,,,,,,,,curfomers,confomers,CURFOMERS,RLNW,z,9430,2020-10-20_14h55.04.291,ColomboPrimingTaskB,2020.1.2,MacIntel,60,,,z,1,0.74909,0,122,122,93,1,,,,,,,,
,,,,,,,,,,,,troasure,trosaure,TROASURE,TLNW,z,9430,2020-10-20_14h55.04.291,ColomboPrimingTaskB,2020.1.2,MacIntel,60,,,m,0,0.983015,0,123,123,146,1,,,,,,,,
,,,,,,,,,,,,privary,privony,PRIVARY,RLNW,z,9430,2020-10-20_14h55.04.291,ColomboPrimingTaskB,2020.1.2,MacIntel,60,,,z,1,1.136965,0,124,124,121,1,,,,,,,,
,,,,,,,,,,,,crims,cloms,CRIMS,RLNW,z,9430,2020-10-20_14h55.04.291,ColomboPrimingTaskB,2020.1.2,MacIntel,60,,,z,1,0.947155,0,125,125,91,1,,,,,,,,
,,,,,,,,,,,,stilks,stofks,STILKS,RLNW,z,9430,2020-10-20_14h55.04.291,ColomboPrimingTaskB,2020.1.2,MacIntel,60,,,z,1,0.950105,0,126,126,135,1,,,,,,,,
,,,,,,,,,,,,esferiment,efseriment,ESFERIMENT,TLNW,z,9430,2020-10-20_14h55.04.291,ColomboPrimingTaskB,2020.1.2,MacIntel,60,,,z,1,0.7486,0,127,127,100,1,,,,,,,,
,,,,,,,,,,,,child,chlid,CHILD,TL2,m,9430,2020-10-20_14h55.04.291,ColomboPrimingTaskB,2020.1.2,MacIntel,60,,,m,1,0.51625,0,128,128,12,1,,,,,,,,
,,,,,,,,,,,,stimp,stmip,STIMP,TLNW,z,9430,2020-10-20_14h55.04.291,ColomboPrimingTaskB,2020.1.2,MacIntel,60,,,z,1,0.64981,0,129,129,137,1,,,,,,,,
,,,,,,,,,,,,biscuit,bisciut,BISCUIT,TL2,m,9430,2020-10-20_14h55.04.291,ColomboPrimingTaskB,2020.1.2,MacIntel,60,,,m,1,1.13296,0,130,130,7,1,,,,,,,,
,,,,,,,,,,,,print,prumt,PRINT,RL2,m,9430,2020-10-20_14h55.04.291,ColomboPrimingTaskB,2020.1.2,MacIntel,60,,,m,1,0.666145,0,131,131,51,1,,,,,,,,
,,,,,,,,,,,,button,butotn,BUTTON,TL2,m,9430,2020-10-20_14h55.04.291,ColomboPrimingTaskB,2020.1.2,MacIntel,60,,,m,1,0.64699,0,132,132,10,1,,,,,,,,
,,,,,,,,,,,,emter,etmer,EMTER,TLNW,z,9430,2020-10-20_14h55.04.291,ColomboPrimingTaskB,2020.1.2,MacIntel,60,,,z,1,0.78158,0,133,133,99,1,,,,,,,,
,,,,,,,,,,,,wutch,wucth,WUTCH,TLNW,z,9430,2020-10-20_14h55.04.291,ColomboPrimingTaskB,2020.1.2,MacIntel,60,,,z,1,0.783165,0,134,134,154,1,,,,,,,,
,,,,,,,,,,,,potato,potido,POTATO,RL2,m,9430,2020-10-20_14h55.04.291,ColomboPrimingTaskB,2020.1.2,MacIntel,60,,,m,1,0.935375,0,135,135,48,1,,,,,,,,
,,,,,,,,,,,,thoatre,thotare,THOATRE,TLNW,z,9430,2020-10-20_14h55.04.291,ColomboPrimingTaskB,2020.1.2,MacIntel,60,,,z,1,1.337385,0,136,136,147,1,,,,,,,,
,,,,,,,,,,,,arvument,ansument,ARVUMENT,RLNW,z,9430,2020-10-20_14h55.04.291,ColomboPrimingTaskB,2020.1.2,MacIntel,60,,,z,1,1.3994,0,137,137,79,1,,,,,,,,
,,,,,,,,,,,,alphabet,alphaebt,ALPHABET,TL2,m,9430,2020-10-20_14h55.04.291,ColomboPrimingTaskB,2020.1.2,MacIntel,60,,,m,1,0.88965,0,138,138,1,1,,,,,,,,
,,,,,,,,,,,,sunset,snuset,SUNSET,TL1,m,9430,2020-10-20_14h55.04.291,ColomboPrimingTaskB,2020.1.2,MacIntel,60,,,m,1,1.00348,0,139,139,68,1,,,,,,,,
,,,,,,,,,,,,plain,ploun,PLAIN,RL2,m,9430,2020-10-20_14h55.04.291,ColomboPrimingTaskB,2020.1.2,MacIntel,60,,,m,1,1.56677,0,140,140,46,1,,,,,,,,
,,,,,,,,,,,,meanwhile,mionwhile,MEANWHILE,RL1,m,9430,2020-10-20_14h55.04.291,ColomboPrimingTaskB,2020.1.2,MacIntel,60,,,m,1,0.633035,0,141,141,36,1,,,,,,,,
,,,,,,,,,,,,playnime,plarmime,PLAYNIME,RLNW,z,9430,2020-10-20_14h55.04.291,ColomboPrimingTaskB,2020.1.2,MacIntel,60,,,z,1,0.850395,0,142,142,120,1,,,,,,,,
,,,,,,,,,,,,hospital,hempital,HOSPITAL,RL1,m,9430,2020-10-20_14h55.04.291,ColomboPrimingTaskB,2020.1.2,MacIntel,60,,,m,1,0.89764,0,143,143,26,1,,,,,,,,
,,,,,,,,,,,,dored,dized,DORED,RLNW,z,9430,2020-10-20_14h55.04.291,ColomboPrimingTaskB,2020.1.2,MacIntel,60,,,z,1,0.81946,0,144,144,96,1,,,,,,,,
,,,,,,,,,,,,panther,pantlor,PANTHER,RL2,m,9430,2020-10-20_14h55.04.291,ColomboPrimingTaskB,2020.1.2,MacIntel,60,,,m,1,0.684465,0,145,145,40,1,,,,,,,,
,,,,,,,,,,,,outside,outsake,OUTSIDE,RL1,m,9430,2020-10-20_14h55.04.291,ColomboPrimingTaskB,2020.1.2,MacIntel,60,,,z,0,0.54812,0,146,146,39,1,,,,,,,,
,,,,,,,,,,,,sleeve,seleve,SLEEVE,RL2,m,9430,2020-10-20_14h55.04.291,ColomboPrimingTaskB,2020.1.2,MacIntel,60,,,m,1,0.68863,0,147,147,58,1,,,,,,,,
,,,,,,,,,,,,following,follownig,FOLLOWING,TL2,m,9430,2020-10-20_14h55.04.291,ColomboPrimingTaskB,2020.1.2,MacIntel,60,,,m,1,0.81708,0,148,148,18,1,,,,,,,,
,,,,,,,,,,,,almond,almnod,ALMOND,TL2,m,9430,2020-10-20_14h55.04.291,ColomboPrimingTaskB,2020.1.2,MacIntel,60,,,m,1,0.682545,0,149,149,0,1,,,,,,,,
,,,,,,,,,,,,stody,sotdy,STODY,TLNW,z,9430,2020-10-20_14h55.04.291,ColomboPrimingTaskB,2020.1.2,MacIntel,60,,,z,1,0.60135,0,150,150,142,1,,,,,,,,
,,,,,,,,,,,,stipping,stippnig,STIPPING,TLNW,z,9430,2020-10-20_14h55.04.291,ColomboPrimingTaskB,2020.1.2,MacIntel,60,,,z,1,0.616015,0,151,151,140,1,,,,,,,,
,,,,,,,,,,,,environment,environmnet,ENVIRONMENT,TL2,m,9430,2020-10-20_14h55.04.291,ColomboPrimingTaskB,2020.1.2,MacIntel,60,,,m,1,0.920725,0,152,152,16,1,,,,,,,,
,,,,,,,,,,,,clavely,chovely,CLAVELY,RLNW,z,9430,2020-10-20_14h55.04.291,ColomboPrimingTaskB,2020.1.2,MacIntel,60,,,z,1,0.602115,0,153,153,88,1,,,,,,,,
,,,,,,,,,,,,statue,sattue,STATUE,TL1,m,9430,2020-10-20_14h55.04.291,ColomboPrimingTaskB,2020.1.2,MacIntel,60,,,m,1,0.75003,0,154,154,64,1,,,,,,,,
,,,,,,,,,,,,birthday,birthady,BIRTHDAY,TL2,m,9430,2020-10-20_14h55.04.291,ColomboPrimingTaskB,2020.1.2,MacIntel,60,,,m,1,0.966015,0,155,155,6,1,,,,,,,,
,,,,,,,,,,,,,,,,,9430,2020-10-20_14h55.04.291,ColomboPrimingTaskB,2020.1.2,MacIntel,60,,,,,,,,,,,space,28.76586, stop,space,20.639675, once they heard it,m,4.41406
