Space1.keys,Space1.rt,Space2.keys,Space2.rt,key_resp.keys,key_resp.corr,key_resp.rt,Practice_loop.thisRepN,Practice_loop.thisTrialN,Practice_loop.thisN,Practice_loop.thisIndex,Practice_loop.ran,Target1,Prime,Target2,Type,CorrAns,Participants I.D.,date,expName,psychopyVersion,OS,frameRate,Space3.keys,Space3.rt,key_resp_2.keys,key_resp_2.corr,key_resp_2.rt,trials.thisRepN,trials.thisTrialN,trials.thisN,trials.thisIndex,trials.ran,key_resp_3.keys,key_resp_3.rt,typedWord,key_resp_4.keys,key_resp_4.rt,typedWord2,key_resp_5.keys,key_resp_5.rt
space,2.80482,space,13.724585,z,1,1.11168,0,0,0,23,1,cnipper,crupper,CNIPPER,NWRL,z,594,2020-08-25_18h07.49.488,ColomboPrimingTaskD,2020.1.2,Win32,60,,,,,,,,,,,,,,,,,,
,,,,m,1,1.36745,0,1,1,1,1,elderflower,elferdower,ELDERFLOWER,WTL,m,594,2020-08-25_18h07.49.488,ColomboPrimingTaskD,2020.1.2,Win32,60,,,,,,,,,,,,,,,,,,
,,,,m,0,0.984645,0,2,2,21,1,campet,cantet,CAMPET,NWRL,z,594,2020-08-25_18h07.49.488,ColomboPrimingTaskD,2020.1.2,Win32,60,,,,,,,,,,,,,,,,,,
,,,,m,0,0.716815,0,3,3,19,1,bacoon,barkon,BACOON,NWRL,z,594,2020-08-25_18h07.49.488,ColomboPrimingTaskD,2020.1.2,Win32,60,,,,,,,,,,,,,,,,,,
,,,,m,1,1.74022,0,4,4,5,1,library,lirbary,LIBRARY,WTL,m,594,2020-08-25_18h07.49.488,ColomboPrimingTaskD,2020.1.2,Win32,60,,,,,,,,,,,,,,,,,,
,,,,z,0,0.659555,0,5,5,4,1,laundry,laudnry,LAUNDRY,WTL,m,594,2020-08-25_18h07.49.488,ColomboPrimingTaskD,2020.1.2,Win32,60,,,,,,,,,,,,,,,,,,
,,,,m,1,1.20214,0,6,6,11,1,violin,viprin,VIOLIN,WRL,m,594,2020-08-25_18h07.49.488,ColomboPrimingTaskD,2020.1.2,Win32,60,,,,,,,,,,,,,,,,,,
,,,,m,1,0.817125,0,7,7,9,1,parcel,pafbel,PARCEL,WRL,m,594,2020-08-25_18h07.49.488,ColomboPrimingTaskD,2020.1.2,Win32,60,,,,,,,,,,,,,,,,,,
,,,,z,1,1.702915,0,8,8,22,1,chfistmas,chrustmas,CHFISTMAS,NWRL,z,594,2020-08-25_18h07.49.488,ColomboPrimingTaskD,2020.1.2,Win32,60,,,,,,,,,,,,,,,,,,
,,,,m,0,0.85612,0,9,9,14,1,dinital,ditinal,DINITAL,NWTL,z,594,2020-08-25_18h07.49.488,ColomboPrimingTaskD,2020.1.2,Win32,60,,,,,,,,,,,,,,,,,,
,,,,m,0,0.95199,0,10,10,12,1,codfort,cofdort,CODFORT,NWTL,z,594,2020-08-25_18h07.49.488,ColomboPrimingTaskD,2020.1.2,Win32,60,,,,,,,,,,,,,,,,,,
,,,,z,1,0.877845,0,11,11,17,1,flech,felch,FLECH,NWTL,z,594,2020-08-25_18h07.49.488,ColomboPrimingTaskD,2020.1.2,Win32,60,,,,,,,,,,,,,,,,,,
,,,,m,0,0.64897,0,12,12,15,1,etephant,etpheant,ETEPHANT,NWTL,z,594,2020-08-25_18h07.49.488,ColomboPrimingTaskD,2020.1.2,Win32,60,,,,,,,,,,,,,,,,,,
,,,,z,1,0.901155,0,13,13,18,1,alacus,afogus,ALACUS,NWRL,z,594,2020-08-25_18h07.49.488,ColomboPrimingTaskD,2020.1.2,Win32,60,,,,,,,,,,,,,,,,,,
,,,,m,1,0.8928,0,14,14,2,1,festival,fetsival,FESTIVAL,WTL,m,594,2020-08-25_18h07.49.488,ColomboPrimingTaskD,2020.1.2,Win32,60,,,,,,,,,,,,,,,,,,
,,,,m,1,1.44814,0,15,15,7,1,nursery,nuftery,NURSERY,WRL,m,594,2020-08-25_18h07.49.488,ColomboPrimingTaskD,2020.1.2,Win32,60,,,,,,,,,,,,,,,,,,
,,,,m,1,0.54665,0,16,16,8,1,picture,pimrure,PICTURE,WRL,m,594,2020-08-25_18h07.49.488,ColomboPrimingTaskD,2020.1.2,Win32,60,,,,,,,,,,,,,,,,,,
,,,,m,1,0.642185,0,17,17,3,1,fifty,fitfy,FIFTY,WTL,m,594,2020-08-25_18h07.49.488,ColomboPrimingTaskD,2020.1.2,Win32,60,,,,,,,,,,,,,,,,,,
,,,,z,0,0.793,0,18,18,0,1,coral,croal,CORAL,WTL,m,594,2020-08-25_18h07.49.488,ColomboPrimingTaskD,2020.1.2,Win32,60,,,,,,,,,,,,,,,,,,
,,,,m,1,0.876805,0,19,19,10,1,twitter,twitofr,TWITTER,WRL,m,594,2020-08-25_18h07.49.488,ColomboPrimingTaskD,2020.1.2,Win32,60,,,,,,,,,,,,,,,,,,
,,,,z,1,0.77054,0,20,20,16,1,clirate,crilate,CLIRATE,NWTL,z,594,2020-08-25_18h07.49.488,ColomboPrimingTaskD,2020.1.2,Win32,60,,,,,,,,,,,,,,,,,,
,,,,m,0,1.0207,0,21,21,20,1,bubbfes,buddfes,BUBBFES,NWRL,z,594,2020-08-25_18h07.49.488,ColomboPrimingTaskD,2020.1.2,Win32,60,,,,,,,,,,,,,,,,,,
,,,,m,1,0.87344,0,22,22,6,1,monopoly,mogomoly,MONOPOLY,WRL,m,594,2020-08-25_18h07.49.488,ColomboPrimingTaskD,2020.1.2,Win32,60,,,,,,,,,,,,,,,,,,
,,,,m,0,1.235465,0,23,23,13,1,cobcert,cocbert,COBCERT,NWTL,z,594,2020-08-25_18h07.49.488,ColomboPrimingTaskD,2020.1.2,Win32,60,,,,,,,,,,,,,,,,,,
,,,,,,,,,,,,thought,treught,THOUGHT,RL1,m,594,2020-08-25_18h07.49.488,ColomboPrimingTaskD,2020.1.2,Win32,60,space,3.61102,m,1,3.296855,0,0,0,71,1,,,,,,,,
,,,,,,,,,,,,scratch,scracth,SCRATCH,TL2,m,594,2020-08-25_18h07.49.488,ColomboPrimingTaskD,2020.1.2,Win32,60,,,,0,,0,1,1,56,1,,,,,,,,
,,,,,,,,,,,,awful,awdal,AWFUL,RL2,m,594,2020-08-25_18h07.49.488,ColomboPrimingTaskD,2020.1.2,Win32,60,,,m,1,0.703255,0,2,2,3,1,,,,,,,,
,,,,,,,,,,,,wilked,wikled,WILKED,TLNW,z,594,2020-08-25_18h07.49.488,ColomboPrimingTaskD,2020.1.2,Win32,60,,,z,1,0.842915,0,3,3,152,1,,,,,,,,
,,,,,,,,,,,,tourist,tawrist,TOURIST,RL1,m,594,2020-08-25_18h07.49.488,ColomboPrimingTaskD,2020.1.2,Win32,60,,,m,1,0.742245,0,4,4,72,1,,,,,,,,
,,,,,,,,,,,,market,mraket,MARKET,TL1,m,594,2020-08-25_18h07.49.488,ColomboPrimingTaskD,2020.1.2,Win32,60,,,m,1,0.63333,0,5,5,34,1,,,,,,,,
,,,,,,,,,,,,lying,liyng,LYING,TL1,m,594,2020-08-25_18h07.49.488,ColomboPrimingTaskD,2020.1.2,Win32,60,,,m,1,0.49694,0,6,6,33,1,,,,,,,,
,,,,,,,,,,,,sturfish,strufish,STURFISH,TLNW,z,594,2020-08-25_18h07.49.488,ColomboPrimingTaskD,2020.1.2,Win32,60,,,m,0,1.107855,0,7,7,139,1,,,,,,,,
,,,,,,,,,,,,plain,plian,PLAIN,TL2,m,594,2020-08-25_18h07.49.488,ColomboPrimingTaskD,2020.1.2,Win32,60,,,m,1,0.65777,0,8,8,46,1,,,,,,,,
,,,,,,,,,,,,winter,wycter,WINTER,RL1,m,594,2020-08-25_18h07.49.488,ColomboPrimingTaskD,2020.1.2,Win32,60,,,m,1,0.709505,0,9,9,77,1,,,,,,,,
,,,,,,,,,,,,rimble,ribmle,RIMBLE,TLNW,z,594,2020-08-25_18h07.49.488,ColomboPrimingTaskD,2020.1.2,Win32,60,,,z,1,1.300535,0,10,10,127,1,,,,,,,,
,,,,,,,,,,,,environment,environmart,ENVIRONMENT,RL2,m,594,2020-08-25_18h07.49.488,ColomboPrimingTaskD,2020.1.2,Win32,60,,,m,1,0.690875,0,11,11,16,1,,,,,,,,
,,,,,,,,,,,,crishing,conshing,CRISHING,RLNW,z,594,2020-08-25_18h07.49.488,ColomboPrimingTaskD,2020.1.2,Win32,60,,,m,0,1.083105,0,12,12,90,1,,,,,,,,
,,,,,,,,,,,,leopard,loepard,LEOPARD,TL1,m,594,2020-08-25_18h07.49.488,ColomboPrimingTaskD,2020.1.2,Win32,60,,,m,1,0.767185,0,13,13,32,1,,,,,,,,
,,,,,,,,,,,,almond,almard,ALMOND,RL2,m,594,2020-08-25_18h07.49.488,ColomboPrimingTaskD,2020.1.2,Win32,60,,,m,1,0.66116,0,14,14,0,1,,,,,,,,
,,,,,,,,,,,,renorded,renroded,RENORDED,TLNW,z,594,2020-08-25_18h07.49.488,ColomboPrimingTaskD,2020.1.2,Win32,60,,,m,0,1.78665,0,15,15,124,1,,,,,,,,
,,,,,,,,,,,,outside,outsdie,OUTSIDE,TL2,m,594,2020-08-25_18h07.49.488,ColomboPrimingTaskD,2020.1.2,Win32,60,,,m,1,0.616835,0,16,16,39,1,,,,,,,,
,,,,,,,,,,,,robber,robebr,ROBBER,TL2,m,594,2020-08-25_18h07.49.488,ColomboPrimingTaskD,2020.1.2,Win32,60,,,m,1,0.75314,0,17,17,54,1,,,,,,,,
,,,,,,,,,,,,pevuliar,peuvliar,PEVULIAR,TLNW,z,594,2020-08-25_18h07.49.488,ColomboPrimingTaskD,2020.1.2,Win32,60,,,z,1,0.859805,0,18,18,119,1,,,,,,,,
,,,,,,,,,,,,roinwater,rionwater,ROINWATER,TLNW,z,594,2020-08-25_18h07.49.488,ColomboPrimingTaskD,2020.1.2,Win32,60,,,z,1,1.08302,0,19,19,123,1,,,,,,,,
,,,,,,,,,,,,thoatre,thotare,THOATRE,TLNW,z,594,2020-08-25_18h07.49.488,ColomboPrimingTaskD,2020.1.2,Win32,60,,,z,1,0.959115,0,20,20,147,1,,,,,,,,
,,,,,,,,,,,,clavely,chovely,CLAVELY,RLNW,z,594,2020-08-25_18h07.49.488,ColomboPrimingTaskD,2020.1.2,Win32,60,,,z,1,0.898955,0,21,21,88,1,,,,,,,,
,,,,,,,,,,,,sunset,simset,SUNSET,RL1,m,594,2020-08-25_18h07.49.488,ColomboPrimingTaskD,2020.1.2,Win32,60,,,m,1,0.71806,0,22,22,68,1,,,,,,,,
,,,,,,,,,,,,skiffed,skfifed,SKIFFED,TLNW,z,594,2020-08-25_18h07.49.488,ColomboPrimingTaskD,2020.1.2,Win32,60,,,m,0,0.87442,0,23,23,130,1,,,,,,,,
,,,,,,,,,,,,taidor,tiador,TAIDOR,TLNW,z,594,2020-08-25_18h07.49.488,ColomboPrimingTaskD,2020.1.2,Win32,60,,,z,1,0.824125,0,24,24,145,1,,,,,,,,
,,,,,,,,,,,,tomay,toamy,TOMAY,TLNW,z,594,2020-08-25_18h07.49.488,ColomboPrimingTaskD,2020.1.2,Win32,60,,,z,1,0.76698,0,25,25,149,1,,,,,,,,
,,,,,,,,,,,,playnime,planyime,PLAYNIME,TLNW,z,594,2020-08-25_18h07.49.488,ColomboPrimingTaskD,2020.1.2,Win32,60,,,m,0,1.13177,0,26,26,120,1,,,,,,,,
,,,,,,,,,,,,plastic,plasitc,PLASTIC,TL2,m,594,2020-08-25_18h07.49.488,ColomboPrimingTaskD,2020.1.2,Win32,60,,,m,1,0.55544,0,27,27,47,1,,,,,,,,
,,,,,,,,,,,,heafs,heils,HEAFS,RLNW,z,594,2020-08-25_18h07.49.488,ColomboPrimingTaskD,2020.1.2,Win32,60,,,z,1,0.683355,0,28,28,106,1,,,,,,,,
,,,,,,,,,,,,markles,martnes,MARKLES,RLNW,z,594,2020-08-25_18h07.49.488,ColomboPrimingTaskD,2020.1.2,Win32,60,,,z,1,0.93566,0,29,29,112,1,,,,,,,,
,,,,,,,,,,,,crockle,chickle,CROCKLE,RLNW,z,594,2020-08-25_18h07.49.488,ColomboPrimingTaskD,2020.1.2,Win32,60,,,z,1,0.902135,0,30,30,89,1,,,,,,,,
,,,,,,,,,,,,stimp,stmip,STIMP,TLNW,z,594,2020-08-25_18h07.49.488,ColomboPrimingTaskD,2020.1.2,Win32,60,,,z,1,0.907375,0,31,31,137,1,,,,,,,,
,,,,,,,,,,,,prince,pricne,PRINCE,TL2,m,594,2020-08-25_18h07.49.488,ColomboPrimingTaskD,2020.1.2,Win32,60,,,m,1,0.708625,0,32,32,50,1,,,,,,,,
,,,,,,,,,,,,fulore,fitore,FULORE,RLNW,z,594,2020-08-25_18h07.49.488,ColomboPrimingTaskD,2020.1.2,Win32,60,,,z,1,0.669235,0,33,33,103,1,,,,,,,,
,,,,,,,,,,,,powerful,powerufl,POWERFUL,TL2,m,594,2020-08-25_18h07.49.488,ColomboPrimingTaskD,2020.1.2,Win32,60,,,m,1,0.53397,0,34,34,49,1,,,,,,,,
,,,,,,,,,,,,enezies,enefoes,ENEZIES,RLNW,z,594,2020-08-25_18h07.49.488,ColomboPrimingTaskD,2020.1.2,Win32,60,,,z,1,0.697165,0,35,35,98,1,,,,,,,,
,,,,,,,,,,,,thirns,thrins,THIRNS,TLNW,z,594,2020-08-25_18h07.49.488,ColomboPrimingTaskD,2020.1.2,Win32,60,,,z,1,0.684455,0,36,36,148,1,,,,,,,,
,,,,,,,,,,,,instant,isntant,INSTANT,TL1,m,594,2020-08-25_18h07.49.488,ColomboPrimingTaskD,2020.1.2,Win32,60,,,m,1,0.583775,0,37,37,29,1,,,,,,,,
,,,,,,,,,,,,referee,refeere,REFEREE,TL2,m,594,2020-08-25_18h07.49.488,ColomboPrimingTaskD,2020.1.2,Win32,60,,,m,1,0.71658,0,38,38,52,1,,,,,,,,
,,,,,,,,,,,,vegetable,vifetable,VEGETABLE,RL1,m,594,2020-08-25_18h07.49.488,ColomboPrimingTaskD,2020.1.2,Win32,60,,,m,1,0.88735,0,39,39,74,1,,,,,,,,
,,,,,,,,,,,,holmits,hofnits,HOLMITS,RLNW,z,594,2020-08-25_18h07.49.488,ColomboPrimingTaskD,2020.1.2,Win32,60,,,z,1,0.69936,0,40,40,108,1,,,,,,,,
,,,,,,,,,,,,blanket,blandit,BLANKET,RL2,m,594,2020-08-25_18h07.49.488,ColomboPrimingTaskD,2020.1.2,Win32,60,,,m,1,0.601555,0,41,41,8,1,,,,,,,,
,,,,,,,,,,,,hoafe,houte,HOAFE,RLNW,z,594,2020-08-25_18h07.49.488,ColomboPrimingTaskD,2020.1.2,Win32,60,,,z,1,0.775585,0,42,42,107,1,,,,,,,,
,,,,,,,,,,,,winner,wroner,WINNER,RL1,m,594,2020-08-25_18h07.49.488,ColomboPrimingTaskD,2020.1.2,Win32,60,,,m,1,0.567305,0,43,43,76,1,,,,,,,,
,,,,,,,,,,,,petrol,petorl,PETROL,TL2,m,594,2020-08-25_18h07.49.488,ColomboPrimingTaskD,2020.1.2,Win32,60,,,m,1,0.551915,0,44,44,44,1,,,,,,,,
,,,,,,,,,,,,forty,froty,FORTY,TL1,m,594,2020-08-25_18h07.49.488,ColomboPrimingTaskD,2020.1.2,Win32,60,,,m,1,0.661065,0,45,45,21,1,,,,,,,,
,,,,,,,,,,,,hospital,hsopital,HOSPITAL,TL1,m,594,2020-08-25_18h07.49.488,ColomboPrimingTaskD,2020.1.2,Win32,60,,,m,1,0.48268,0,46,46,26,1,,,,,,,,
,,,,,,,,,,,,summer,sirmer,SUMMER,RL1,m,594,2020-08-25_18h07.49.488,ColomboPrimingTaskD,2020.1.2,Win32,60,,,m,1,0.50763,0,47,47,67,1,,,,,,,,
,,,,,,,,,,,,woary,woray,WOARY,TLNW,z,594,2020-08-25_18h07.49.488,ColomboPrimingTaskD,2020.1.2,Win32,60,,,z,1,0.667175,0,48,48,153,1,,,,,,,,
,,,,,,,,,,,,swump,suwmp,SWUMP,TLNW,z,594,2020-08-25_18h07.49.488,ColomboPrimingTaskD,2020.1.2,Win32,60,,,z,1,0.88872,0,49,49,144,1,,,,,,,,
,,,,,,,,,,,,burning,burnarg,BURNING,RL2,m,594,2020-08-25_18h07.49.488,ColomboPrimingTaskD,2020.1.2,Win32,60,,,m,1,0.814955,0,50,50,9,1,,,,,,,,
,,,,,,,,,,,,alphabet,alphamot,ALPHABET,RL2,m,594,2020-08-25_18h07.49.488,ColomboPrimingTaskD,2020.1.2,Win32,60,,,m,1,0.78412,0,51,51,1,1,,,,,,,,
,,,,,,,,,,,,wardrobe,wendrobe,WARDROBE,RL1,m,594,2020-08-25_18h07.49.488,ColomboPrimingTaskD,2020.1.2,Win32,60,,,m,1,0.655635,0,52,52,75,1,,,,,,,,
,,,,,,,,,,,,meanwhile,maenwhile,MEANWHILE,TL1,m,594,2020-08-25_18h07.49.488,ColomboPrimingTaskD,2020.1.2,Win32,60,,,m,1,0.57323,0,53,53,36,1,,,,,,,,
,,,,,,,,,,,,proffed,porffed,PROFFED,TLNW,z,594,2020-08-25_18h07.49.488,ColomboPrimingTaskD,2020.1.2,Win32,60,,,m,0,0.7038,0,54,54,122,1,,,,,,,,
,,,,,,,,,,,,pench,pnech,PENCH,TLNW,z,594,2020-08-25_18h07.49.488,ColomboPrimingTaskD,2020.1.2,Win32,60,,,m,0,0.601755,0,55,55,118,1,,,,,,,,
,,,,,,,,,,,,forest,froest,FOREST,TL1,m,594,2020-08-25_18h07.49.488,ColomboPrimingTaskD,2020.1.2,Win32,60,,,m,1,0.53159,0,56,56,20,1,,,,,,,,
,,,,,,,,,,,,foreign,froeign,FOREIGN,TL1,m,594,2020-08-25_18h07.49.488,ColomboPrimingTaskD,2020.1.2,Win32,60,,,m,1,0.529845,0,57,57,19,1,,,,,,,,
,,,,,,,,,,,,stipping,stippnig,STIPPING,TLNW,z,594,2020-08-25_18h07.49.488,ColomboPrimingTaskD,2020.1.2,Win32,60,,,z,1,0.68465,0,58,58,140,1,,,,,,,,
,,,,,,,,,,,,esferiment,emteriment,ESFERIMENT,RLNW,z,594,2020-08-25_18h07.49.488,ColomboPrimingTaskD,2020.1.2,Win32,60,,,z,1,1.251385,0,59,59,100,1,,,,,,,,
,,,,,,,,,,,,twotched,towtched,TWOTCHED,TLNW,z,594,2020-08-25_18h07.49.488,ColomboPrimingTaskD,2020.1.2,Win32,60,,,z,1,0.816735,0,60,60,151,1,,,,,,,,
,,,,,,,,,,,,button,butsan,BUTTON,RL2,m,594,2020-08-25_18h07.49.488,ColomboPrimingTaskD,2020.1.2,Win32,60,,,m,1,0.80569,0,61,61,10,1,,,,,,,,
,,,,,,,,,,,,dentist,dentort,DENTIST,RL2,m,594,2020-08-25_18h07.49.488,ColomboPrimingTaskD,2020.1.2,Win32,60,,,m,1,0.601,0,62,62,13,1,,,,,,,,
,,,,,,,,,,,,boach,beuch,BOACH,RLNW,z,594,2020-08-25_18h07.49.488,ColomboPrimingTaskD,2020.1.2,Win32,60,,,z,1,0.884045,0,63,63,82,1,,,,,,,,
,,,,,,,,,,,,chupter,chufler,CHUPTER,RLNW,z,594,2020-08-25_18h07.49.488,ColomboPrimingTaskD,2020.1.2,Win32,60,,,m,0,1.20255,0,64,64,87,1,,,,,,,,
,,,,,,,,,,,,trapped,twupped,TRAPPED,RL1,m,594,2020-08-25_18h07.49.488,ColomboPrimingTaskD,2020.1.2,Win32,60,,,m,1,0.689515,0,65,65,73,1,,,,,,,,
,,,,,,,,,,,,stody,sotdy,STODY,TLNW,z,594,2020-08-25_18h07.49.488,ColomboPrimingTaskD,2020.1.2,Win32,60,,,z,1,0.75065,0,66,66,142,1,,,,,,,,
,,,,,,,,,,,,sibble,siblbe,SIBBLE,TLNW,z,594,2020-08-25_18h07.49.488,ColomboPrimingTaskD,2020.1.2,Win32,60,,,z,1,0.70941,0,67,67,129,1,,,,,,,,
,,,,,,,,,,,,apting,azking,APTING,RLNW,z,594,2020-08-25_18h07.49.488,ColomboPrimingTaskD,2020.1.2,Win32,60,,,z,1,0.81831,0,68,68,78,1,,,,,,,,
,,,,,,,,,,,,loarnt,lozint,LOARNT,RLNW,z,594,2020-08-25_18h07.49.488,ColomboPrimingTaskD,2020.1.2,Win32,60,,,z,1,0.8093,0,69,69,110,1,,,,,,,,
,,,,,,,,,,,,rolin,roiln,ROLIN,TLNW,z,594,2020-08-25_18h07.49.488,ColomboPrimingTaskD,2020.1.2,Win32,60,,,z,1,0.55239,0,70,70,126,1,,,,,,,,
,,,,,,,,,,,,child,chand,CHILD,RL2,m,594,2020-08-25_18h07.49.488,ColomboPrimingTaskD,2020.1.2,Win32,60,,,m,1,0.61675,0,71,71,12,1,,,,,,,,
,,,,,,,,,,,,orchestra,ocrhesta,ORCHESTRA,TL1,m,594,2020-08-25_18h07.49.488,ColomboPrimingTaskD,2020.1.2,Win32,60,,,m,1,0.66427,0,72,72,38,1,,,,,,,,
,,,,,,,,,,,,onerall,onreall,ONERALL,TLNW,z,594,2020-08-25_18h07.49.488,ColomboPrimingTaskD,2020.1.2,Win32,60,,,m,0,1.01574,0,73,73,117,1,,,,,,,,
,,,,,,,,,,,,round,ronud,ROUND,TL2,m,594,2020-08-25_18h07.49.488,ColomboPrimingTaskD,2020.1.2,Win32,60,,,m,1,0.442795,0,74,74,55,1,,,,,,,,
,,,,,,,,,,,,entry,endly,ENTRY,RL2,m,594,2020-08-25_18h07.49.488,ColomboPrimingTaskD,2020.1.2,Win32,60,,,m,1,0.531535,0,75,75,15,1,,,,,,,,
,,,,,,,,,,,,dored,dized,DORED,RLNW,z,594,2020-08-25_18h07.49.488,ColomboPrimingTaskD,2020.1.2,Win32,60,,,z,1,0.76179,0,76,76,96,1,,,,,,,,
,,,,,,,,,,,,statue,skitue,STATUE,RL1,m,594,2020-08-25_18h07.49.488,ColomboPrimingTaskD,2020.1.2,Win32,60,,,m,1,0.833775,0,77,77,64,1,,,,,,,,
,,,,,,,,,,,,bidger,bofger,BIDGER,RLNW,z,594,2020-08-25_18h07.49.488,ColomboPrimingTaskD,2020.1.2,Win32,60,,,z,1,0.850815,0,78,78,81,1,,,,,,,,
,,,,,,,,,,,,pavement,pavemnet,PAVEMENT,TL2,m,594,2020-08-25_18h07.49.488,ColomboPrimingTaskD,2020.1.2,Win32,60,,,m,1,0.785515,0,79,79,42,1,,,,,,,,
,,,,,,,,,,,,emter,erfer,EMTER,RLNW,z,594,2020-08-25_18h07.49.488,ColomboPrimingTaskD,2020.1.2,Win32,60,,,m,0,1.0383,0,80,80,99,1,,,,,,,,
,,,,,,,,,,,,niffling,nitffing,NIFFLING,RLNW,z,594,2020-08-25_18h07.49.488,ColomboPrimingTaskD,2020.1.2,Win32,60,,,z,1,0.935195,0,81,81,116,1,,,,,,,,
,,,,,,,,,,,,biscuit,biscoat,BISCUIT,RL2,m,594,2020-08-25_18h07.49.488,ColomboPrimingTaskD,2020.1.2,Win32,60,,,m,1,0.668225,0,82,82,7,1,,,,,,,,
,,,,,,,,,,,,print,prnit,PRINT,TL2,m,594,2020-08-25_18h07.49.488,ColomboPrimingTaskD,2020.1.2,Win32,60,,,m,1,0.74982,0,83,83,51,1,,,,,,,,
,,,,,,,,,,,,privary,privray,PRIVARY,TLNW,z,594,2020-08-25_18h07.49.488,ColomboPrimingTaskD,2020.1.2,Win32,60,,,m,0,0.581405,0,84,84,121,1,,,,,,,,
,,,,,,,,,,,,spear,swiar,SPEAR,RL1,m,594,2020-08-25_18h07.49.488,ColomboPrimingTaskD,2020.1.2,Win32,60,,,m,1,0.8233,0,85,85,62,1,,,,,,,,
,,,,,,,,,,,,pigeon,pigoen,PIGEON,TL2,m,594,2020-08-25_18h07.49.488,ColomboPrimingTaskD,2020.1.2,Win32,60,,,z,0,1.002485,0,86,86,45,1,,,,,,,,
,,,,,,,,,,,,patient,patinet,PATIENT,TL2,m,594,2020-08-25_18h07.49.488,ColomboPrimingTaskD,2020.1.2,Win32,60,,,m,1,0.835215,0,87,87,41,1,,,,,,,,
,,,,,,,,,,,,kitchen,ktichen,KITCHEN,TL1,m,594,2020-08-25_18h07.49.488,ColomboPrimingTaskD,2020.1.2,Win32,60,,,m,1,0.52158,0,88,88,30,1,,,,,,,,
,,,,,,,,,,,,ghost,gohst,GHOST,TL1,m,594,2020-08-25_18h07.49.488,ColomboPrimingTaskD,2020.1.2,Win32,60,,,m,1,0.569205,0,89,89,22,1,,,,,,,,
,,,,,,,,,,,,return,retrun,RETURN,TL2,m,594,2020-08-25_18h07.49.488,ColomboPrimingTaskD,2020.1.2,Win32,60,,,m,1,0.5509,0,90,90,53,1,,,,,,,,
,,,,,,,,,,,,callage,calluze,CALLAGE,RLNW,z,594,2020-08-25_18h07.49.488,ColomboPrimingTaskD,2020.1.2,Win32,60,,,z,1,1.00113,0,91,91,83,1,,,,,,,,
,,,,,,,,,,,,smooth,swioth,SMOOTH,RL1,m,594,2020-08-25_18h07.49.488,ColomboPrimingTaskD,2020.1.2,Win32,60,,,m,1,0.641565,0,92,92,59,1,,,,,,,,
,,,,,,,,,,,,story,slary,STORY,RL1,m,594,2020-08-25_18h07.49.488,ColomboPrimingTaskD,2020.1.2,Win32,60,,,m,1,0.6041,0,93,93,66,1,,,,,,,,
,,,,,,,,,,,,around,aroild,AROUND,RL2,m,594,2020-08-25_18h07.49.488,ColomboPrimingTaskD,2020.1.2,Win32,60,,,m,1,0.568045,0,94,94,2,1,,,,,,,,
,,,,,,,,,,,,penguin,pengiun,PENGUIN,TL2,m,594,2020-08-25_18h07.49.488,ColomboPrimingTaskD,2020.1.2,Win32,60,,,m,1,0.685675,0,95,95,43,1,,,,,,,,
,,,,,,,,,,,,cammied,cammoad,CAMMIED,RLNW,z,594,2020-08-25_18h07.49.488,ColomboPrimingTaskD,2020.1.2,Win32,60,,,z,1,1.371855,0,96,96,85,1,,,,,,,,
,,,,,,,,,,,,asbrunaut,andrunaut,ASBRUNAUT,RLNW,z,594,2020-08-25_18h07.49.488,ColomboPrimingTaskD,2020.1.2,Win32,60,,,z,1,1.236935,0,97,97,80,1,,,,,,,,
,,,,,,,,,,,,tronch,tornch,TRONCH,TLNW,z,594,2020-08-25_18h07.49.488,ColomboPrimingTaskD,2020.1.2,Win32,60,,,z,1,0.879305,0,98,98,150,1,,,,,,,,
,,,,,,,,,,,,stoze,sotze,STOZE,TLNW,z,594,2020-08-25_18h07.49.488,ColomboPrimingTaskD,2020.1.2,Win32,60,,,z,1,0.979075,0,99,99,141,1,,,,,,,,
,,,,,,,,,,,,grufes,glofes,GRUFES,RLNW,z,594,2020-08-25_18h07.49.488,ColomboPrimingTaskD,2020.1.2,Win32,60,,,z,1,0.750745,0,100,100,105,1,,,,,,,,
,,,,,,,,,,,,troasure,trosaure,TROASURE,TLNW,z,594,2020-08-25_18h07.49.488,ColomboPrimingTaskD,2020.1.2,Win32,60,,,z,1,1.08503,0,101,101,146,1,,,,,,,,
,,,,,,,,,,,,hibernate,hbiernate,HIBERNATE,TL1,m,594,2020-08-25_18h07.49.488,ColomboPrimingTaskD,2020.1.2,Win32,60,,,z,0,0.920635,0,102,102,24,1,,,,,,,,
,,,,,,,,,,,,stilks,stliks,STILKS,TLNW,z,594,2020-08-25_18h07.49.488,ColomboPrimingTaskD,2020.1.2,Win32,60,,,z,1,0.611515,0,103,103,135,1,,,,,,,,
,,,,,,,,,,,,difentions,difortions,DIFENTIONS,RLNW,z,594,2020-08-25_18h07.49.488,ColomboPrimingTaskD,2020.1.2,Win32,60,,,z,1,0.87123,0,104,104,95,1,,,,,,,,
,,,,,,,,,,,,potato,pottao,POTATO,TL2,m,594,2020-08-25_18h07.49.488,ColomboPrimingTaskD,2020.1.2,Win32,60,,,m,1,0.67114,0,105,105,48,1,,,,,,,,
,,,,,,,,,,,,singer,sinegr,SINGER,TL2,m,594,2020-08-25_18h07.49.488,ColomboPrimingTaskD,2020.1.2,Win32,60,,,m,1,0.536695,0,106,106,57,1,,,,,,,,
,,,,,,,,,,,,senved,serced,SENVED,RLNW,z,594,2020-08-25_18h07.49.488,ColomboPrimingTaskD,2020.1.2,Win32,60,,,z,1,0.928355,0,107,107,101,1,,,,,,,,
,,,,,,,,,,,,drink,drosk,DRINK,RL2,m,594,2020-08-25_18h07.49.488,ColomboPrimingTaskD,2020.1.2,Win32,60,,,m,1,0.564965,0,108,108,14,1,,,,,,,,
,,,,,,,,,,,,believe,beliane,BELIEVE,RL2,m,594,2020-08-25_18h07.49.488,ColomboPrimingTaskD,2020.1.2,Win32,60,,,m,1,0.573495,0,109,109,5,1,,,,,,,,
,,,,,,,,,,,,caterpiddar,catonpiddar,CATERPIDDAR,RLNW,z,594,2020-08-25_18h07.49.488,ColomboPrimingTaskD,2020.1.2,Win32,60,,,z,1,1.146435,0,110,110,86,1,,,,,,,,
,,,,,,,,,,,,match,mtach,MATCH,TL1,m,594,2020-08-25_18h07.49.488,ColomboPrimingTaskD,2020.1.2,Win32,60,,,m,1,0.655955,0,111,111,35,1,,,,,,,,
,,,,,,,,,,,,lopely,lopary,LOPELY,RLNW,z,594,2020-08-25_18h07.49.488,ColomboPrimingTaskD,2020.1.2,Win32,60,,,z,1,0.70086,0,112,112,111,1,,,,,,,,
,,,,,,,,,,,,dufty,dulpy,DUFTY,RLNW,z,594,2020-08-25_18h07.49.488,ColomboPrimingTaskD,2020.1.2,Win32,60,,,m,0,1.03388,0,113,113,97,1,,,,,,,,
,,,,,,,,,,,,natural,ntaural,NATURAL,TL1,m,594,2020-08-25_18h07.49.488,ColomboPrimingTaskD,2020.1.2,Win32,60,,,m,1,0.637325,0,114,114,37,1,,,,,,,,
,,,,,,,,,,,,holiday,hloiday,HOLIDAY,TL1,m,594,2020-08-25_18h07.49.488,ColomboPrimingTaskD,2020.1.2,Win32,60,,,m,1,0.5069,0,115,115,25,1,,,,,,,,
,,,,,,,,,,,,yowned,yonwed,YOWNED,TLNW,z,594,2020-08-25_18h07.49.488,ColomboPrimingTaskD,2020.1.2,Win32,60,,,z,1,0.550885,0,116,116,155,1,,,,,,,,
,,,,,,,,,,,,stoff,sotff,STOFF,TLNW,z,594,2020-08-25_18h07.49.488,ColomboPrimingTaskD,2020.1.2,Win32,60,,,z,1,0.832665,0,117,117,134,1,,,,,,,,
,,,,,,,,,,,,panther,pantehr,PANTHER,TL2,m,594,2020-08-25_18h07.49.488,ColomboPrimingTaskD,2020.1.2,Win32,60,,,z,0,0.86739,0,118,118,40,1,,,,,,,,
,,,,,,,,,,,,standust,stadnust,STANDUST,TLNW,z,594,2020-08-25_18h07.49.488,ColomboPrimingTaskD,2020.1.2,Win32,60,,,z,1,0.979525,0,119,119,138,1,,,,,,,,
,,,,,,,,,,,,floats,flowks,FLOATS,RL2,m,594,2020-08-25_18h07.49.488,ColomboPrimingTaskD,2020.1.2,Win32,60,,,m,1,0.72125,0,120,120,17,1,,,,,,,,
,,,,,,,,,,,,crunphy,clinphy,CRUNPHY,RLNW,z,594,2020-08-25_18h07.49.488,ColomboPrimingTaskD,2020.1.2,Win32,60,,,z,1,1.26981,0,121,121,92,1,,,,,,,,
,,,,,,,,,,,,snack,swyck,SNACK,RL1,m,594,2020-08-25_18h07.49.488,ColomboPrimingTaskD,2020.1.2,Win32,60,,,m,1,0.658975,0,122,122,60,1,,,,,,,,
,,,,,,,,,,,,following,followarg,FOLLOWING,RL2,m,594,2020-08-25_18h07.49.488,ColomboPrimingTaskD,2020.1.2,Win32,60,,,m,1,0.612355,0,123,123,18,1,,,,,,,,
,,,,,,,,,,,,talking,tirking,TALKING,RL1,m,594,2020-08-25_18h07.49.488,ColomboPrimingTaskD,2020.1.2,Win32,60,,,m,1,0.58385,0,124,124,70,1,,,,,,,,
,,,,,,,,,,,,stull,stlul,STULL,TLNW,z,594,2020-08-25_18h07.49.488,ColomboPrimingTaskD,2020.1.2,Win32,60,,,z,1,0.815265,0,125,125,136,1,,,,,,,,
,,,,,,,,,,,,knorn,klarn,KNORN,RLNW,z,594,2020-08-25_18h07.49.488,ColomboPrimingTaskD,2020.1.2,Win32,60,,,z,1,0.97252,0,126,126,109,1,,,,,,,,
,,,,,,,,,,,,crims,cloms,CRIMS,RLNW,z,594,2020-08-25_18h07.49.488,ColomboPrimingTaskD,2020.1.2,Win32,60,,,z,1,0.626745,0,127,127,91,1,,,,,,,,
,,,,,,,,,,,,gniching,gruching,GNICHING,RLNW,z,594,2020-08-25_18h07.49.488,ColomboPrimingTaskD,2020.1.2,Win32,60,,,m,0,0.75243,0,128,128,104,1,,,,,,,,
,,,,,,,,,,,,snake,sorke,SNAKE,RL1,m,594,2020-08-25_18h07.49.488,ColomboPrimingTaskD,2020.1.2,Win32,60,,,m,1,0.84036,0,129,129,61,1,,,,,,,,
,,,,,,,,,,,,basket,baslit,BASKET,RL2,m,594,2020-08-25_18h07.49.488,ColomboPrimingTaskD,2020.1.2,Win32,60,,,m,1,0.66079,0,130,130,4,1,,,,,,,,
,,,,,,,,,,,,spailt,spalit,SPAILT,TLNW,z,594,2020-08-25_18h07.49.488,ColomboPrimingTaskD,2020.1.2,Win32,60,,,z,1,0.737895,0,131,131,133,1,,,,,,,,
,,,,,,,,,,,,sleeve,staeve,SLEEVE,RL1,m,594,2020-08-25_18h07.49.488,ColomboPrimingTaskD,2020.1.2,Win32,60,,,z,0,0.589115,0,132,132,58,1,,,,,,,,
,,,,,,,,,,,,rolief,roleif,ROLIEF,TLNW,z,594,2020-08-25_18h07.49.488,ColomboPrimingTaskD,2020.1.2,Win32,60,,,z,1,0.73654,0,133,133,125,1,,,,,,,,
,,,,,,,,,,,,mirtioned,minfioned,MIRTIONED,RLNW,z,594,2020-08-25_18h07.49.488,ColomboPrimingTaskD,2020.1.2,Win32,60,,,z,1,1.21254,0,134,134,113,1,,,,,,,,
,,,,,,,,,,,,influence,ifnluence,INFLUENCE,TL1,m,594,2020-08-25_18h07.49.488,ColomboPrimingTaskD,2020.1.2,Win32,60,,,m,1,0.784625,0,135,135,28,1,,,,,,,,
,,,,,,,,,,,,skirping,skriping,SKIRPING,TLNW,z,594,2020-08-25_18h07.49.488,ColomboPrimingTaskD,2020.1.2,Win32,60,,,z,1,1.21635,0,136,136,131,1,,,,,,,,
,,,,,,,,,,,,arvument,ansument,ARVUMENT,RLNW,z,594,2020-08-25_18h07.49.488,ColomboPrimingTaskD,2020.1.2,Win32,60,,,z,1,1.2996,0,137,137,79,1,,,,,,,,
,,,,,,,,,,,,midute,midoke,MIDUTE,RLNW,z,594,2020-08-25_18h07.49.488,ColomboPrimingTaskD,2020.1.2,Win32,60,,,z,1,0.666815,0,138,138,114,1,,,,,,,,
,,,,,,,,,,,,dimotaurs,dizetaurs,DIMOTAURS,RLNW,z,594,2020-08-25_18h07.49.488,ColomboPrimingTaskD,2020.1.2,Win32,60,,,z,1,0.83503,0,139,139,94,1,,,,,,,,
,,,,,,,,,,,,spirit,smorit,SPIRIT,RL1,m,594,2020-08-25_18h07.49.488,ColomboPrimingTaskD,2020.1.2,Win32,60,,,m,1,0.686935,0,140,140,63,1,,,,,,,,
,,,,,,,,,,,,birthday,birthloy,BIRTHDAY,RL2,m,594,2020-08-25_18h07.49.488,ColomboPrimingTaskD,2020.1.2,Win32,60,,,m,1,0.53873,0,141,141,6,1,,,,,,,,
,,,,,,,,,,,,spoff,sopff,SPOFF,TLNW,z,594,2020-08-25_18h07.49.488,ColomboPrimingTaskD,2020.1.2,Win32,60,,,z,1,0.66737,0,142,142,143,1,,,,,,,,
,,,,,,,,,,,,stomach,slumach,STOMACH,RL1,m,594,2020-08-25_18h07.49.488,ColomboPrimingTaskD,2020.1.2,Win32,60,,,m,1,0.60312,0,143,143,65,1,,,,,,,,
,,,,,,,,,,,,legend,lgeend,LEGEND,TL1,m,594,2020-08-25_18h07.49.488,ColomboPrimingTaskD,2020.1.2,Win32,60,,,m,1,0.54162,0,144,144,31,1,,,,,,,,
,,,,,,,,,,,,scraff,srcaff,SCRAFF,TLNW,z,594,2020-08-25_18h07.49.488,ColomboPrimingTaskD,2020.1.2,Win32,60,,,m,0,0.80067,0,145,145,128,1,,,,,,,,
,,,,,,,,,,,,swallow,smollow,SWALLOW,RL1,m,594,2020-08-25_18h07.49.488,ColomboPrimingTaskD,2020.1.2,Win32,60,,,m,1,0.578845,0,146,146,69,1,,,,,,,,
,,,,,,,,,,,,hotel,htoel,HOTEL,TL1,m,594,2020-08-25_18h07.49.488,ColomboPrimingTaskD,2020.1.2,Win32,60,,,m,1,0.45953,0,147,147,27,1,,,,,,,,
,,,,,,,,,,,,flazer,fruzer,FLAZER,RLNW,z,594,2020-08-25_18h07.49.488,ColomboPrimingTaskD,2020.1.2,Win32,60,,,z,1,0.934675,0,148,148,102,1,,,,,,,,
,,,,,,,,,,,,wutch,wucth,WUTCH,TLNW,z,594,2020-08-25_18h07.49.488,ColomboPrimingTaskD,2020.1.2,Win32,60,,,z,1,0.62999,0,149,149,154,1,,,,,,,,
,,,,,,,,,,,,canivan,canuran,CANIVAN,RLNW,z,594,2020-08-25_18h07.49.488,ColomboPrimingTaskD,2020.1.2,Win32,60,,,z,1,1.131925,0,150,150,84,1,,,,,,,,
,,,,,,,,,,,,curfomers,confomers,CURFOMERS,RLNW,z,594,2020-08-25_18h07.49.488,ColomboPrimingTaskD,2020.1.2,Win32,60,,,z,1,0.753135,0,151,151,93,1,,,,,,,,
,,,,,,,,,,,,heaven,haeven,HEAVEN,TL1,m,594,2020-08-25_18h07.49.488,ColomboPrimingTaskD,2020.1.2,Win32,60,,,m,1,0.586715,0,152,152,23,1,,,,,,,,
,,,,,,,,,,,,motter,mlater,MOTTER,RLNW,z,594,2020-08-25_18h07.49.488,ColomboPrimingTaskD,2020.1.2,Win32,60,,,z,1,0.985085,0,153,153,115,1,,,,,,,,
,,,,,,,,,,,,sporks,sproks,SPORKS,TLNW,z,594,2020-08-25_18h07.49.488,ColomboPrimingTaskD,2020.1.2,Win32,60,,,m,0,1.209185,0,154,154,132,1,,,,,,,,
,,,,,,,,,,,,chicken,chicwan,CHICKEN,RL2,m,594,2020-08-25_18h07.49.488,ColomboPrimingTaskD,2020.1.2,Win32,60,,,m,1,0.68372,0,155,155,11,1,,,,,,,,
,,,,,,,,,,,,,,,,,594,2020-08-25_18h07.49.488,ColomboPrimingTaskD,2020.1.2,Win32,60,,,,,,,,,,,space,45.040235,  afraid ,space,38.08315, everybody sweat a lot doing sports,return,10.998535
