Space1.keys,Space1.rt,Space2.keys,Space2.rt,key_resp.keys,key_resp.corr,Practice_loop.thisRepN,Practice_loop.thisTrialN,Practice_loop.thisN,Practice_loop.thisIndex,Practice_loop.ran,Target1,Prime,Target2,Type,CorrAns,Participants I.D.,date,expName,psychopyVersion,OS,frameRate,key_resp.rt,Space3.keys,Space3.rt,key_resp_2.keys,key_resp_2.corr,key_resp_2.rt,trials.thisRepN,trials.thisTrialN,trials.thisN,trials.thisIndex,trials.ran,key_resp_3.keys,key_resp_3.rt,typedWord,key_resp_4.keys,key_resp_4.rt,typedWord2,key_resp_5.keys,key_resp_5.rt
space,1.905735,space,93.33836,,0,0,0,0,3,1,fifty,fitfy,FIFTY,WTL,m,4546,2020-10-15_12h39.40.740,ColomboPrimingTaskD,2020.1.2,MacIntel,60,,,,,,,,,,,,,,,,,,,
,,,,m,1,0,1,1,5,1,library,lirbary,LIBRARY,WTL,m,4546,2020-10-15_12h39.40.740,ColomboPrimingTaskD,2020.1.2,MacIntel,60,2.238895,,,,,,,,,,,,,,,,,,
,,,,m,1,0,2,2,4,1,laundry,laudnry,LAUNDRY,WTL,m,4546,2020-10-15_12h39.40.740,ColomboPrimingTaskD,2020.1.2,MacIntel,60,1.977735,,,,,,,,,,,,,,,,,,
,,,,m,1,0,3,3,1,1,elderflower,elferdower,ELDERFLOWER,WTL,m,4546,2020-10-15_12h39.40.740,ColomboPrimingTaskD,2020.1.2,MacIntel,60,2.03058,,,,,,,,,,,,,,,,,,
,,,,z,1,0,4,4,17,1,flech,felch,FLECH,NWTL,z,4546,2020-10-15_12h39.40.740,ColomboPrimingTaskD,2020.1.2,MacIntel,60,1.10122,,,,,,,,,,,,,,,,,,
,,,,m,1,0,5,5,6,1,monopoly,mogomoly,MONOPOLY,WRL,m,4546,2020-10-15_12h39.40.740,ColomboPrimingTaskD,2020.1.2,MacIntel,60,0.8883,,,,,,,,,,,,,,,,,,
,,,,z,1,0,6,6,18,1,alacus,afogus,ALACUS,NWRL,z,4546,2020-10-15_12h39.40.740,ColomboPrimingTaskD,2020.1.2,MacIntel,60,1.071145,,,,,,,,,,,,,,,,,,
,,,,m,1,0,7,7,10,1,twitter,twitofr,TWITTER,WRL,m,4546,2020-10-15_12h39.40.740,ColomboPrimingTaskD,2020.1.2,MacIntel,60,0.74894,,,,,,,,,,,,,,,,,,
,,,,z,1,0,8,8,14,1,dinital,ditinal,DINITAL,NWTL,z,4546,2020-10-15_12h39.40.740,ColomboPrimingTaskD,2020.1.2,MacIntel,60,0.715585,,,,,,,,,,,,,,,,,,
,,,,m,1,0,9,9,9,1,parcel,pafbel,PARCEL,WRL,m,4546,2020-10-15_12h39.40.740,ColomboPrimingTaskD,2020.1.2,MacIntel,60,1.57505,,,,,,,,,,,,,,,,,,
,,,,z,1,0,10,10,20,1,bubbfes,buddfes,BUBBFES,NWRL,z,4546,2020-10-15_12h39.40.740,ColomboPrimingTaskD,2020.1.2,MacIntel,60,0.983955,,,,,,,,,,,,,,,,,,
,,,,z,1,0,11,11,23,1,cnipper,crupper,CNIPPER,NWRL,z,4546,2020-10-15_12h39.40.740,ColomboPrimingTaskD,2020.1.2,MacIntel,60,1.06779,,,,,,,,,,,,,,,,,,
,,,,z,1,0,12,12,19,1,bacoon,barkon,BACOON,NWRL,z,4546,2020-10-15_12h39.40.740,ColomboPrimingTaskD,2020.1.2,MacIntel,60,1.251955,,,,,,,,,,,,,,,,,,
,,,,m,1,0,13,13,8,1,picture,pimrure,PICTURE,WRL,m,4546,2020-10-15_12h39.40.740,ColomboPrimingTaskD,2020.1.2,MacIntel,60,0.654975,,,,,,,,,,,,,,,,,,
,,,,m,1,0,14,14,7,1,nursery,nuftery,NURSERY,WRL,m,4546,2020-10-15_12h39.40.740,ColomboPrimingTaskD,2020.1.2,MacIntel,60,0.632375,,,,,,,,,,,,,,,,,,
,,,,z,1,0,15,15,13,1,cobcert,cocbert,COBCERT,NWTL,z,4546,2020-10-15_12h39.40.740,ColomboPrimingTaskD,2020.1.2,MacIntel,60,1.1098,,,,,,,,,,,,,,,,,,
,,,,m,1,0,16,16,0,1,coral,croal,CORAL,WTL,m,4546,2020-10-15_12h39.40.740,ColomboPrimingTaskD,2020.1.2,MacIntel,60,0.833095,,,,,,,,,,,,,,,,,,
,,,,z,1,0,17,17,16,1,clirate,crilate,CLIRATE,NWTL,z,4546,2020-10-15_12h39.40.740,ColomboPrimingTaskD,2020.1.2,MacIntel,60,1.025095,,,,,,,,,,,,,,,,,,
,,,,m,0,0,18,18,15,1,etephant,etpheant,ETEPHANT,NWTL,z,4546,2020-10-15_12h39.40.740,ColomboPrimingTaskD,2020.1.2,MacIntel,60,0.98433,,,,,,,,,,,,,,,,,,
,,,,z,1,0,19,19,21,1,campet,cantet,CAMPET,NWRL,z,4546,2020-10-15_12h39.40.740,ColomboPrimingTaskD,2020.1.2,MacIntel,60,1.235795,,,,,,,,,,,,,,,,,,
,,,,z,1,0,20,20,12,1,codfort,cofdort,CODFORT,NWTL,z,4546,2020-10-15_12h39.40.740,ColomboPrimingTaskD,2020.1.2,MacIntel,60,1.192555,,,,,,,,,,,,,,,,,,
,,,,m,1,0,21,21,2,1,festival,fetsival,FESTIVAL,WTL,m,4546,2020-10-15_12h39.40.740,ColomboPrimingTaskD,2020.1.2,MacIntel,60,0.883945,,,,,,,,,,,,,,,,,,
,,,,z,1,0,22,22,22,1,chfistmas,chrustmas,CHFISTMAS,NWRL,z,4546,2020-10-15_12h39.40.740,ColomboPrimingTaskD,2020.1.2,MacIntel,60,0.8411,,,,,,,,,,,,,,,,,,
,,,,m,1,0,23,23,11,1,violin,viprin,VIOLIN,WRL,m,4546,2020-10-15_12h39.40.740,ColomboPrimingTaskD,2020.1.2,MacIntel,60,0.758035,,,,,,,,,,,,,,,,,,
,,,,,,,,,,,environment,environmart,ENVIRONMENT,RL2,m,4546,2020-10-15_12h39.40.740,ColomboPrimingTaskD,2020.1.2,MacIntel,60,,space,2.881345,m,1,2.37601,0,0,0,16,1,,,,,,,,
,,,,,,,,,,,playnime,planyime,PLAYNIME,TLNW,z,4546,2020-10-15_12h39.40.740,ColomboPrimingTaskD,2020.1.2,MacIntel,60,,,,z,1,2.027775,0,1,1,120,1,,,,,,,,
,,,,,,,,,,,rolief,roleif,ROLIEF,TLNW,z,4546,2020-10-15_12h39.40.740,ColomboPrimingTaskD,2020.1.2,MacIntel,60,,,,z,1,1.541755,0,2,2,125,1,,,,,,,,
,,,,,,,,,,,stilks,stliks,STILKS,TLNW,z,4546,2020-10-15_12h39.40.740,ColomboPrimingTaskD,2020.1.2,MacIntel,60,,,,z,1,1.651805,0,3,3,135,1,,,,,,,,
,,,,,,,,,,,arvument,ansument,ARVUMENT,RLNW,z,4546,2020-10-15_12h39.40.740,ColomboPrimingTaskD,2020.1.2,MacIntel,60,,,,z,1,1.86285,0,4,4,79,1,,,,,,,,
,,,,,,,,,,,stoze,sotze,STOZE,TLNW,z,4546,2020-10-15_12h39.40.740,ColomboPrimingTaskD,2020.1.2,MacIntel,60,,,,z,1,1.769735,0,5,5,141,1,,,,,,,,
,,,,,,,,,,,dentist,dentort,DENTIST,RL2,m,4546,2020-10-15_12h39.40.740,ColomboPrimingTaskD,2020.1.2,MacIntel,60,,,,m,1,1.218775,0,6,6,13,1,,,,,,,,
,,,,,,,,,,,niffling,nitffing,NIFFLING,RLNW,z,4546,2020-10-15_12h39.40.740,ColomboPrimingTaskD,2020.1.2,MacIntel,60,,,,z,1,0.856385,0,7,7,116,1,,,,,,,,
,,,,,,,,,,,renorded,renroded,RENORDED,TLNW,z,4546,2020-10-15_12h39.40.740,ColomboPrimingTaskD,2020.1.2,MacIntel,60,,,,z,1,1.94226,0,8,8,124,1,,,,,,,,
,,,,,,,,,,,vegetable,vifetable,VEGETABLE,RL1,m,4546,2020-10-15_12h39.40.740,ColomboPrimingTaskD,2020.1.2,MacIntel,60,,,,m,1,1.785515,0,9,9,74,1,,,,,,,,
,,,,,,,,,,,orchestra,ocrhesta,ORCHESTRA,TL1,m,4546,2020-10-15_12h39.40.740,ColomboPrimingTaskD,2020.1.2,MacIntel,60,,,,m,1,1.995155,0,10,10,38,1,,,,,,,,
,,,,,,,,,,,spoff,sopff,SPOFF,TLNW,z,4546,2020-10-15_12h39.40.740,ColomboPrimingTaskD,2020.1.2,MacIntel,60,,,,z,1,1.00548,0,11,11,143,1,,,,,,,,
,,,,,,,,,,,privary,privray,PRIVARY,TLNW,z,4546,2020-10-15_12h39.40.740,ColomboPrimingTaskD,2020.1.2,MacIntel,60,,,,z,1,1.974195,0,12,12,121,1,,,,,,,,
,,,,,,,,,,,referee,refeere,REFEREE,TL2,m,4546,2020-10-15_12h39.40.740,ColomboPrimingTaskD,2020.1.2,MacIntel,60,,,,m,1,2.12181,0,13,13,52,1,,,,,,,,
,,,,,,,,,,,yowned,yonwed,YOWNED,TLNW,z,4546,2020-10-15_12h39.40.740,ColomboPrimingTaskD,2020.1.2,MacIntel,60,,,,z,1,1.701975,0,14,14,155,1,,,,,,,,
,,,,,,,,,,,kitchen,ktichen,KITCHEN,TL1,m,4546,2020-10-15_12h39.40.740,ColomboPrimingTaskD,2020.1.2,MacIntel,60,,,,m,1,1.236585,0,15,15,30,1,,,,,,,,
,,,,,,,,,,,knorn,klarn,KNORN,RLNW,z,4546,2020-10-15_12h39.40.740,ColomboPrimingTaskD,2020.1.2,MacIntel,60,,,,z,1,1.28545,0,16,16,109,1,,,,,,,,
,,,,,,,,,,,thirns,thrins,THIRNS,TLNW,z,4546,2020-10-15_12h39.40.740,ColomboPrimingTaskD,2020.1.2,MacIntel,60,,,,z,1,1.641695,0,17,17,148,1,,,,,,,,
,,,,,,,,,,,trapped,twupped,TRAPPED,RL1,m,4546,2020-10-15_12h39.40.740,ColomboPrimingTaskD,2020.1.2,MacIntel,60,,,,m,1,1.26988,0,18,18,73,1,,,,,,,,
,,,,,,,,,,,statue,skitue,STATUE,RL1,m,4546,2020-10-15_12h39.40.740,ColomboPrimingTaskD,2020.1.2,MacIntel,60,,,,m,1,1.51018,0,19,19,64,1,,,,,,,,
,,,,,,,,,,,return,retrun,RETURN,TL2,m,4546,2020-10-15_12h39.40.740,ColomboPrimingTaskD,2020.1.2,MacIntel,60,,,,m,1,1.090695,0,20,20,53,1,,,,,,,,
,,,,,,,,,,,crishing,conshing,CRISHING,RLNW,z,4546,2020-10-15_12h39.40.740,ColomboPrimingTaskD,2020.1.2,MacIntel,60,,,,z,1,1.474515,0,21,21,90,1,,,,,,,,
,,,,,,,,,,,taidor,tiador,TAIDOR,TLNW,z,4546,2020-10-15_12h39.40.740,ColomboPrimingTaskD,2020.1.2,MacIntel,60,,,,z,1,1.485955,0,22,22,145,1,,,,,,,,
,,,,,,,,,,,tourist,tawrist,TOURIST,RL1,m,4546,2020-10-15_12h39.40.740,ColomboPrimingTaskD,2020.1.2,MacIntel,60,,,,m,1,1.399205,0,23,23,72,1,,,,,,,,
,,,,,,,,,,,twotched,towtched,TWOTCHED,TLNW,z,4546,2020-10-15_12h39.40.740,ColomboPrimingTaskD,2020.1.2,MacIntel,60,,,,z,1,1.36108,0,24,24,151,1,,,,,,,,
,,,,,,,,,,,canivan,canuran,CANIVAN,RLNW,z,4546,2020-10-15_12h39.40.740,ColomboPrimingTaskD,2020.1.2,MacIntel,60,,,,z,1,1.34184,0,25,25,84,1,,,,,,,,
,,,,,,,,,,,pevuliar,peuvliar,PEVULIAR,TLNW,z,4546,2020-10-15_12h39.40.740,ColomboPrimingTaskD,2020.1.2,MacIntel,60,,,,z,1,1.65451,0,26,26,119,1,,,,,,,,
,,,,,,,,,,,burning,burnarg,BURNING,RL2,m,4546,2020-10-15_12h39.40.740,ColomboPrimingTaskD,2020.1.2,MacIntel,60,,,,m,1,1.023595,0,27,27,9,1,,,,,,,,
,,,,,,,,,,,boach,beuch,BOACH,RLNW,z,4546,2020-10-15_12h39.40.740,ColomboPrimingTaskD,2020.1.2,MacIntel,60,,,,z,1,1.067825,0,28,28,82,1,,,,,,,,
,,,,,,,,,,,winner,wroner,WINNER,RL1,m,4546,2020-10-15_12h39.40.740,ColomboPrimingTaskD,2020.1.2,MacIntel,60,,,,m,1,0.888445,0,29,29,76,1,,,,,,,,
,,,,,,,,,,,talking,tirking,TALKING,RL1,m,4546,2020-10-15_12h39.40.740,ColomboPrimingTaskD,2020.1.2,MacIntel,60,,,,m,1,1.460155,0,30,30,70,1,,,,,,,,
,,,,,,,,,,,basket,baslit,BASKET,RL2,m,4546,2020-10-15_12h39.40.740,ColomboPrimingTaskD,2020.1.2,MacIntel,60,,,,m,1,1.20267,0,31,31,4,1,,,,,,,,
,,,,,,,,,,,wardrobe,wendrobe,WARDROBE,RL1,m,4546,2020-10-15_12h39.40.740,ColomboPrimingTaskD,2020.1.2,MacIntel,60,,,,m,1,2.305265,0,32,32,75,1,,,,,,,,
,,,,,,,,,,,stimp,stmip,STIMP,TLNW,z,4546,2020-10-15_12h39.40.740,ColomboPrimingTaskD,2020.1.2,MacIntel,60,,,,z,1,1.157235,0,33,33,137,1,,,,,,,,
,,,,,,,,,,,winter,wycter,WINTER,RL1,m,4546,2020-10-15_12h39.40.740,ColomboPrimingTaskD,2020.1.2,MacIntel,60,,,,m,1,1.486195,0,34,34,77,1,,,,,,,,
,,,,,,,,,,,meanwhile,maenwhile,MEANWHILE,TL1,m,4546,2020-10-15_12h39.40.740,ColomboPrimingTaskD,2020.1.2,MacIntel,60,,,,m,1,1.635265,0,35,35,36,1,,,,,,,,
,,,,,,,,,,,swallow,smollow,SWALLOW,RL1,m,4546,2020-10-15_12h39.40.740,ColomboPrimingTaskD,2020.1.2,MacIntel,60,,,,m,1,1.189195,0,36,36,69,1,,,,,,,,
,,,,,,,,,,,petrol,petorl,PETROL,TL2,m,4546,2020-10-15_12h39.40.740,ColomboPrimingTaskD,2020.1.2,MacIntel,60,,,,m,1,1.00482,0,37,37,44,1,,,,,,,,
,,,,,,,,,,,blanket,blandit,BLANKET,RL2,m,4546,2020-10-15_12h39.40.740,ColomboPrimingTaskD,2020.1.2,MacIntel,60,,,,m,1,1.155515,0,38,38,8,1,,,,,,,,
,,,,,,,,,,,tomay,toamy,TOMAY,TLNW,z,4546,2020-10-15_12h39.40.740,ColomboPrimingTaskD,2020.1.2,MacIntel,60,,,,z,1,1.07567,0,39,39,149,1,,,,,,,,
,,,,,,,,,,,sunset,simset,SUNSET,RL1,m,4546,2020-10-15_12h39.40.740,ColomboPrimingTaskD,2020.1.2,MacIntel,60,,,,m,1,0.967045,0,40,40,68,1,,,,,,,,
,,,,,,,,,,,hotel,htoel,HOTEL,TL1,m,4546,2020-10-15_12h39.40.740,ColomboPrimingTaskD,2020.1.2,MacIntel,60,,,,m,1,0.81692,0,41,41,27,1,,,,,,,,
,,,,,,,,,,,bidger,bofger,BIDGER,RLNW,z,4546,2020-10-15_12h39.40.740,ColomboPrimingTaskD,2020.1.2,MacIntel,60,,,,z,1,1.131695,0,42,42,81,1,,,,,,,,
,,,,,,,,,,,drink,drosk,DRINK,RL2,m,4546,2020-10-15_12h39.40.740,ColomboPrimingTaskD,2020.1.2,MacIntel,60,,,,m,1,1.368885,0,43,43,14,1,,,,,,,,
,,,,,,,,,,,spirit,smorit,SPIRIT,RL1,m,4546,2020-10-15_12h39.40.740,ColomboPrimingTaskD,2020.1.2,MacIntel,60,,,,m,1,2.17302,0,44,44,63,1,,,,,,,,
,,,,,,,,,,,ghost,gohst,GHOST,TL1,m,4546,2020-10-15_12h39.40.740,ColomboPrimingTaskD,2020.1.2,MacIntel,60,,,,m,1,0.915845,0,45,45,22,1,,,,,,,,
,,,,,,,,,,,awful,awdal,AWFUL,RL2,m,4546,2020-10-15_12h39.40.740,ColomboPrimingTaskD,2020.1.2,MacIntel,60,,,,m,1,1.470925,0,46,46,3,1,,,,,,,,
,,,,,,,,,,,spailt,spalit,SPAILT,TLNW,z,4546,2020-10-15_12h39.40.740,ColomboPrimingTaskD,2020.1.2,MacIntel,60,,,,z,1,1.059195,0,47,47,133,1,,,,,,,,
,,,,,,,,,,,chicken,chicwan,CHICKEN,RL2,m,4546,2020-10-15_12h39.40.740,ColomboPrimingTaskD,2020.1.2,MacIntel,60,,,,m,1,1.58562,0,48,48,11,1,,,,,,,,
,,,,,,,,,,,potato,pottao,POTATO,TL2,m,4546,2020-10-15_12h39.40.740,ColomboPrimingTaskD,2020.1.2,MacIntel,60,,,,m,1,1.358115,0,49,49,48,1,,,,,,,,
,,,,,,,,,,,natural,ntaural,NATURAL,TL1,m,4546,2020-10-15_12h39.40.740,ColomboPrimingTaskD,2020.1.2,MacIntel,60,,,,m,1,1.79698,0,50,50,37,1,,,,,,,,
,,,,,,,,,,,foreign,froeign,FOREIGN,TL1,m,4546,2020-10-15_12h39.40.740,ColomboPrimingTaskD,2020.1.2,MacIntel,60,,,,m,1,1.53548,0,51,51,19,1,,,,,,,,
,,,,,,,,,,,influence,ifnluence,INFLUENCE,TL1,m,4546,2020-10-15_12h39.40.740,ColomboPrimingTaskD,2020.1.2,MacIntel,60,,,,m,1,2.087355,0,52,52,28,1,,,,,,,,
,,,,,,,,,,,forty,froty,FORTY,TL1,m,4546,2020-10-15_12h39.40.740,ColomboPrimingTaskD,2020.1.2,MacIntel,60,,,,m,1,1.257385,0,53,53,21,1,,,,,,,,
,,,,,,,,,,,woary,woray,WOARY,TLNW,z,4546,2020-10-15_12h39.40.740,ColomboPrimingTaskD,2020.1.2,MacIntel,60,,,,z,1,1.087015,0,54,54,153,1,,,,,,,,
,,,,,,,,,,,grufes,glofes,GRUFES,RLNW,z,4546,2020-10-15_12h39.40.740,ColomboPrimingTaskD,2020.1.2,MacIntel,60,,,,z,1,1.86093,0,55,55,105,1,,,,,,,,
,,,,,,,,,,,mirtioned,minfioned,MIRTIONED,RLNW,z,4546,2020-10-15_12h39.40.740,ColomboPrimingTaskD,2020.1.2,MacIntel,60,,,,z,1,1.704455,0,56,56,113,1,,,,,,,,
,,,,,,,,,,,outside,outsdie,OUTSIDE,TL2,m,4546,2020-10-15_12h39.40.740,ColomboPrimingTaskD,2020.1.2,MacIntel,60,,,,m,1,1.018165,0,57,57,39,1,,,,,,,,
,,,,,,,,,,,market,mraket,MARKET,TL1,m,4546,2020-10-15_12h39.40.740,ColomboPrimingTaskD,2020.1.2,MacIntel,60,,,,m,1,1.135825,0,58,58,34,1,,,,,,,,
,,,,,,,,,,,wilked,wikled,WILKED,TLNW,z,4546,2020-10-15_12h39.40.740,ColomboPrimingTaskD,2020.1.2,MacIntel,60,,,,z,1,1.284905,0,59,59,152,1,,,,,,,,
,,,,,,,,,,,clavely,chovely,CLAVELY,RLNW,z,4546,2020-10-15_12h39.40.740,ColomboPrimingTaskD,2020.1.2,MacIntel,60,,,,z,1,1.306835,0,60,60,88,1,,,,,,,,
,,,,,,,,,,,pigeon,pigoen,PIGEON,TL2,m,4546,2020-10-15_12h39.40.740,ColomboPrimingTaskD,2020.1.2,MacIntel,60,,,,m,1,1.282085,0,61,61,45,1,,,,,,,,
,,,,,,,,,,,lopely,lopary,LOPELY,RLNW,z,4546,2020-10-15_12h39.40.740,ColomboPrimingTaskD,2020.1.2,MacIntel,60,,,,z,1,1.175635,0,62,62,111,1,,,,,,,,
,,,,,,,,,,,stoff,sotff,STOFF,TLNW,z,4546,2020-10-15_12h39.40.740,ColomboPrimingTaskD,2020.1.2,MacIntel,60,,,,z,1,0.934515,0,63,63,134,1,,,,,,,,
,,,,,,,,,,,dufty,dulpy,DUFTY,RLNW,z,4546,2020-10-15_12h39.40.740,ColomboPrimingTaskD,2020.1.2,MacIntel,60,,,,z,1,0.925615,0,64,64,97,1,,,,,,,,
,,,,,,,,,,,panther,pantehr,PANTHER,TL2,m,4546,2020-10-15_12h39.40.740,ColomboPrimingTaskD,2020.1.2,MacIntel,60,,,,m,1,1.737625,0,65,65,40,1,,,,,,,,
,,,,,,,,,,,pench,pnech,PENCH,TLNW,z,4546,2020-10-15_12h39.40.740,ColomboPrimingTaskD,2020.1.2,MacIntel,60,,,,z,1,1.01161,0,66,66,118,1,,,,,,,,
,,,,,,,,,,,esferiment,emteriment,ESFERIMENT,RLNW,z,4546,2020-10-15_12h39.40.740,ColomboPrimingTaskD,2020.1.2,MacIntel,60,,,,z,1,0.9825,0,67,67,100,1,,,,,,,,
,,,,,,,,,,,stipping,stippnig,STIPPING,TLNW,z,4546,2020-10-15_12h39.40.740,ColomboPrimingTaskD,2020.1.2,MacIntel,60,,,,z,1,1.73739,0,68,68,140,1,,,,,,,,
,,,,,,,,,,,believe,beliane,BELIEVE,RL2,m,4546,2020-10-15_12h39.40.740,ColomboPrimingTaskD,2020.1.2,MacIntel,60,,,,m,1,1.74196,0,69,69,5,1,,,,,,,,
,,,,,,,,,,,legend,lgeend,LEGEND,TL1,m,4546,2020-10-15_12h39.40.740,ColomboPrimingTaskD,2020.1.2,MacIntel,60,,,,m,1,1.312675,0,70,70,31,1,,,,,,,,
,,,,,,,,,,,robber,robebr,ROBBER,TL2,m,4546,2020-10-15_12h39.40.740,ColomboPrimingTaskD,2020.1.2,MacIntel,60,,,,m,1,0.95745,0,71,71,54,1,,,,,,,,
,,,,,,,,,,,crunphy,clinphy,CRUNPHY,RLNW,z,4546,2020-10-15_12h39.40.740,ColomboPrimingTaskD,2020.1.2,MacIntel,60,,,,z,1,1.63921,0,72,72,92,1,,,,,,,,
,,,,,,,,,,,emter,erfer,EMTER,RLNW,z,4546,2020-10-15_12h39.40.740,ColomboPrimingTaskD,2020.1.2,MacIntel,60,,,,z,1,1.50439,0,73,73,99,1,,,,,,,,
,,,,,,,,,,,proffed,porffed,PROFFED,TLNW,z,4546,2020-10-15_12h39.40.740,ColomboPrimingTaskD,2020.1.2,MacIntel,60,,,,z,1,1.43583,0,74,74,122,1,,,,,,,,
,,,,,,,,,,,senved,serced,SENVED,RLNW,z,4546,2020-10-15_12h39.40.740,ColomboPrimingTaskD,2020.1.2,MacIntel,60,,,,z,1,1.62505,0,75,75,101,1,,,,,,,,
,,,,,,,,,,,button,butsan,BUTTON,RL2,m,4546,2020-10-15_12h39.40.740,ColomboPrimingTaskD,2020.1.2,MacIntel,60,,,,m,1,0.887175,0,76,76,10,1,,,,,,,,
,,,,,,,,,,,stomach,slumach,STOMACH,RL1,m,4546,2020-10-15_12h39.40.740,ColomboPrimingTaskD,2020.1.2,MacIntel,60,,,,m,1,1.15032,0,77,77,65,1,,,,,,,,
,,,,,,,,,,,troasure,trosaure,TROASURE,TLNW,z,4546,2020-10-15_12h39.40.740,ColomboPrimingTaskD,2020.1.2,MacIntel,60,,,,z,1,1.23485,0,78,78,146,1,,,,,,,,
,,,,,,,,,,,roinwater,rionwater,ROINWATER,TLNW,z,4546,2020-10-15_12h39.40.740,ColomboPrimingTaskD,2020.1.2,MacIntel,60,,,,z,1,1.4759,0,79,79,123,1,,,,,,,,
,,,,,,,,,,,hospital,hsopital,HOSPITAL,TL1,m,4546,2020-10-15_12h39.40.740,ColomboPrimingTaskD,2020.1.2,MacIntel,60,,,,m,1,1.168615,0,80,80,26,1,,,,,,,,
,,,,,,,,,,,skiffed,skfifed,SKIFFED,TLNW,z,4546,2020-10-15_12h39.40.740,ColomboPrimingTaskD,2020.1.2,MacIntel,60,,,,z,1,1.10419,0,81,81,130,1,,,,,,,,
,,,,,,,,,,,entry,endly,ENTRY,RL2,m,4546,2020-10-15_12h39.40.740,ColomboPrimingTaskD,2020.1.2,MacIntel,60,,,,m,1,1.18262,0,82,82,15,1,,,,,,,,
,,,,,,,,,,,spear,swiar,SPEAR,RL1,m,4546,2020-10-15_12h39.40.740,ColomboPrimingTaskD,2020.1.2,MacIntel,60,,,,m,1,1.084425,0,83,83,62,1,,,,,,,,
,,,,,,,,,,,snake,sorke,SNAKE,RL1,m,4546,2020-10-15_12h39.40.740,ColomboPrimingTaskD,2020.1.2,MacIntel,60,,,,m,1,0.91114,0,84,84,61,1,,,,,,,,
,,,,,,,,,,,sporks,sproks,SPORKS,TLNW,z,4546,2020-10-15_12h39.40.740,ColomboPrimingTaskD,2020.1.2,MacIntel,60,,,,z,1,1.32839,0,85,85,132,1,,,,,,,,
,,,,,,,,,,,plastic,plasitc,PLASTIC,TL2,m,4546,2020-10-15_12h39.40.740,ColomboPrimingTaskD,2020.1.2,MacIntel,60,,,,m,1,1.000275,0,86,86,47,1,,,,,,,,
,,,,,,,,,,,motter,mlater,MOTTER,RLNW,z,4546,2020-10-15_12h39.40.740,ColomboPrimingTaskD,2020.1.2,MacIntel,60,,,,z,1,1.41154,0,87,87,115,1,,,,,,,,
,,,,,,,,,,,leopard,loepard,LEOPARD,TL1,m,4546,2020-10-15_12h39.40.740,ColomboPrimingTaskD,2020.1.2,MacIntel,60,,,,m,1,1.55267,0,88,88,32,1,,,,,,,,
,,,,,,,,,,,dored,dized,DORED,RLNW,z,4546,2020-10-15_12h39.40.740,ColomboPrimingTaskD,2020.1.2,MacIntel,60,,,,z,1,0.97325,0,89,89,96,1,,,,,,,,
,,,,,,,,,,,alphabet,alphamot,ALPHABET,RL2,m,4546,2020-10-15_12h39.40.740,ColomboPrimingTaskD,2020.1.2,MacIntel,60,,,,m,1,1.63894,0,90,90,1,1,,,,,,,,
,,,,,,,,,,,child,chand,CHILD,RL2,m,4546,2020-10-15_12h39.40.740,ColomboPrimingTaskD,2020.1.2,MacIntel,60,,,,m,1,0.71907,0,91,91,12,1,,,,,,,,
,,,,,,,,,,,markles,martnes,MARKLES,RLNW,z,4546,2020-10-15_12h39.40.740,ColomboPrimingTaskD,2020.1.2,MacIntel,60,,,,z,1,1.399615,0,92,92,112,1,,,,,,,,
,,,,,,,,,,,lying,liyng,LYING,TL1,m,4546,2020-10-15_12h39.40.740,ColomboPrimingTaskD,2020.1.2,MacIntel,60,,,,m,1,1.191565,0,93,93,33,1,,,,,,,,
,,,,,,,,,,,sturfish,strufish,STURFISH,TLNW,z,4546,2020-10-15_12h39.40.740,ColomboPrimingTaskD,2020.1.2,MacIntel,60,,,,z,1,1.324055,0,94,94,139,1,,,,,,,,
,,,,,,,,,,,caterpiddar,catonpiddar,CATERPIDDAR,RLNW,z,4546,2020-10-15_12h39.40.740,ColomboPrimingTaskD,2020.1.2,MacIntel,60,,,,z,1,2.97162,0,95,95,86,1,,,,,,,,
,,,,,,,,,,,instant,isntant,INSTANT,TL1,m,4546,2020-10-15_12h39.40.740,ColomboPrimingTaskD,2020.1.2,MacIntel,60,,,,m,1,1.876355,0,96,96,29,1,,,,,,,,
,,,,,,,,,,,sleeve,staeve,SLEEVE,RL1,m,4546,2020-10-15_12h39.40.740,ColomboPrimingTaskD,2020.1.2,MacIntel,60,,,,m,1,1.28607,0,97,97,58,1,,,,,,,,
,,,,,,,,,,,powerful,powerufl,POWERFUL,TL2,m,4546,2020-10-15_12h39.40.740,ColomboPrimingTaskD,2020.1.2,MacIntel,60,,,,m,1,0.84179,0,98,98,49,1,,,,,,,,
,,,,,,,,,,,holiday,hloiday,HOLIDAY,TL1,m,4546,2020-10-15_12h39.40.740,ColomboPrimingTaskD,2020.1.2,MacIntel,60,,,,m,1,0.72331,0,99,99,25,1,,,,,,,,
,,,,,,,,,,,smooth,swioth,SMOOTH,RL1,m,4546,2020-10-15_12h39.40.740,ColomboPrimingTaskD,2020.1.2,MacIntel,60,,,,m,1,0.88628,0,100,100,59,1,,,,,,,,
,,,,,,,,,,,scratch,scracth,SCRATCH,TL2,m,4546,2020-10-15_12h39.40.740,ColomboPrimingTaskD,2020.1.2,MacIntel,60,,,,m,1,2.30619,0,101,101,56,1,,,,,,,,
,,,,,,,,,,,floats,flowks,FLOATS,RL2,m,4546,2020-10-15_12h39.40.740,ColomboPrimingTaskD,2020.1.2,MacIntel,60,,,,m,1,1.252925,0,102,102,17,1,,,,,,,,
,,,,,,,,,,,flazer,fruzer,FLAZER,RLNW,z,4546,2020-10-15_12h39.40.740,ColomboPrimingTaskD,2020.1.2,MacIntel,60,,,,z,1,0.88394,0,103,103,102,1,,,,,,,,
,,,,,,,,,,,enezies,enefoes,ENEZIES,RLNW,z,4546,2020-10-15_12h39.40.740,ColomboPrimingTaskD,2020.1.2,MacIntel,60,,,,z,1,0.87529,0,104,104,98,1,,,,,,,,
,,,,,,,,,,,scraff,srcaff,SCRAFF,TLNW,z,4546,2020-10-15_12h39.40.740,ColomboPrimingTaskD,2020.1.2,MacIntel,60,,,,z,1,1.13686,0,105,105,128,1,,,,,,,,
,,,,,,,,,,,pavement,pavemnet,PAVEMENT,TL2,m,4546,2020-10-15_12h39.40.740,ColomboPrimingTaskD,2020.1.2,MacIntel,60,,,,m,1,1.71982,0,106,106,42,1,,,,,,,,
,,,,,,,,,,,gniching,gruching,GNICHING,RLNW,z,4546,2020-10-15_12h39.40.740,ColomboPrimingTaskD,2020.1.2,MacIntel,60,,,,z,1,1.55161,0,107,107,104,1,,,,,,,,
,,,,,,,,,,,prince,pricne,PRINCE,TL2,m,4546,2020-10-15_12h39.40.740,ColomboPrimingTaskD,2020.1.2,MacIntel,60,,,,m,1,1.33323,0,108,108,50,1,,,,,,,,
,,,,,,,,,,,hibernate,hbiernate,HIBERNATE,TL1,m,4546,2020-10-15_12h39.40.740,ColomboPrimingTaskD,2020.1.2,MacIntel,60,,,,m,1,2.08015,0,109,109,24,1,,,,,,,,
,,,,,,,,,,,forest,froest,FOREST,TL1,m,4546,2020-10-15_12h39.40.740,ColomboPrimingTaskD,2020.1.2,MacIntel,60,,,,m,1,1.21297,0,110,110,20,1,,,,,,,,
,,,,,,,,,,,almond,almard,ALMOND,RL2,m,4546,2020-10-15_12h39.40.740,ColomboPrimingTaskD,2020.1.2,MacIntel,60,,,,m,1,1.806505,0,111,111,0,1,,,,,,,,
,,,,,,,,,,,asbrunaut,andrunaut,ASBRUNAUT,RLNW,z,4546,2020-10-15_12h39.40.740,ColomboPrimingTaskD,2020.1.2,MacIntel,60,,,,z,1,1.11846,0,112,112,80,1,,,,,,,,
,,,,,,,,,,,hoafe,houte,HOAFE,RLNW,z,4546,2020-10-15_12h39.40.740,ColomboPrimingTaskD,2020.1.2,MacIntel,60,,,,z,1,0.884355,0,113,113,107,1,,,,,,,,
,,,,,,,,,,,thoatre,thotare,THOATRE,TLNW,z,4546,2020-10-15_12h39.40.740,ColomboPrimingTaskD,2020.1.2,MacIntel,60,,,,z,1,1.654085,0,114,114,147,1,,,,,,,,
,,,,,,,,,,,print,prnit,PRINT,TL2,m,4546,2020-10-15_12h39.40.740,ColomboPrimingTaskD,2020.1.2,MacIntel,60,,,,m,1,0.934375,0,115,115,51,1,,,,,,,,
,,,,,,,,,,,standust,stadnust,STANDUST,TLNW,z,4546,2020-10-15_12h39.40.740,ColomboPrimingTaskD,2020.1.2,MacIntel,60,,,,z,1,1.718705,0,116,116,138,1,,,,,,,,
,,,,,,,,,,,crims,cloms,CRIMS,RLNW,z,4546,2020-10-15_12h39.40.740,ColomboPrimingTaskD,2020.1.2,MacIntel,60,,,,z,1,0.871615,0,117,117,91,1,,,,,,,,
,,,,,,,,,,,heafs,heils,HEAFS,RLNW,z,4546,2020-10-15_12h39.40.740,ColomboPrimingTaskD,2020.1.2,MacIntel,60,,,,z,1,0.922415,0,118,118,106,1,,,,,,,,
,,,,,,,,,,,tronch,tornch,TRONCH,TLNW,z,4546,2020-10-15_12h39.40.740,ColomboPrimingTaskD,2020.1.2,MacIntel,60,,,,z,1,0.833735,0,119,119,150,1,,,,,,,,
,,,,,,,,,,,snack,swyck,SNACK,RL1,m,4546,2020-10-15_12h39.40.740,ColomboPrimingTaskD,2020.1.2,MacIntel,60,,,,m,1,1.310365,0,120,120,60,1,,,,,,,,
,,,,,,,,,,,stody,sotdy,STODY,TLNW,z,4546,2020-10-15_12h39.40.740,ColomboPrimingTaskD,2020.1.2,MacIntel,60,,,,z,1,0.903065,0,121,121,142,1,,,,,,,,
,,,,,,,,,,,rolin,roiln,ROLIN,TLNW,z,4546,2020-10-15_12h39.40.740,ColomboPrimingTaskD,2020.1.2,MacIntel,60,,,,z,1,1.001165,0,122,122,126,1,,,,,,,,
,,,,,,,,,,,heaven,haeven,HEAVEN,TL1,m,4546,2020-10-15_12h39.40.740,ColomboPrimingTaskD,2020.1.2,MacIntel,60,,,,m,1,1.5037,0,123,123,23,1,,,,,,,,
,,,,,,,,,,,summer,sirmer,SUMMER,RL1,m,4546,2020-10-15_12h39.40.740,ColomboPrimingTaskD,2020.1.2,MacIntel,60,,,,m,1,1.37492,0,124,124,67,1,,,,,,,,
,,,,,,,,,,,match,mtach,MATCH,TL1,m,4546,2020-10-15_12h39.40.740,ColomboPrimingTaskD,2020.1.2,MacIntel,60,,,,m,1,1.23726,0,125,125,35,1,,,,,,,,
,,,,,,,,,,,wutch,wucth,WUTCH,TLNW,z,4546,2020-10-15_12h39.40.740,ColomboPrimingTaskD,2020.1.2,MacIntel,60,,,,z,1,1.001855,0,126,126,154,1,,,,,,,,
,,,,,,,,,,,stull,stlul,STULL,TLNW,z,4546,2020-10-15_12h39.40.740,ColomboPrimingTaskD,2020.1.2,MacIntel,60,,,,z,1,1.034885,0,127,127,136,1,,,,,,,,
,,,,,,,,,,,thought,treught,THOUGHT,RL1,m,4546,2020-10-15_12h39.40.740,ColomboPrimingTaskD,2020.1.2,MacIntel,60,,,,m,1,1.487455,0,128,128,71,1,,,,,,,,
,,,,,,,,,,,cammied,cammoad,CAMMIED,RLNW,z,4546,2020-10-15_12h39.40.740,ColomboPrimingTaskD,2020.1.2,MacIntel,60,,,,z,1,1.41424,0,129,129,85,1,,,,,,,,
,,,,,,,,,,,biscuit,biscoat,BISCUIT,RL2,m,4546,2020-10-15_12h39.40.740,ColomboPrimingTaskD,2020.1.2,MacIntel,60,,,,m,1,1.453035,0,130,130,7,1,,,,,,,,
,,,,,,,,,,,following,followarg,FOLLOWING,RL2,m,4546,2020-10-15_12h39.40.740,ColomboPrimingTaskD,2020.1.2,MacIntel,60,,,,m,1,1.7206,0,131,131,18,1,,,,,,,,
,,,,,,,,,,,patient,patinet,PATIENT,TL2,m,4546,2020-10-15_12h39.40.740,ColomboPrimingTaskD,2020.1.2,MacIntel,60,,,,m,1,1.620405,0,132,132,41,1,,,,,,,,
,,,,,,,,,,,onerall,onreall,ONERALL,TLNW,z,4546,2020-10-15_12h39.40.740,ColomboPrimingTaskD,2020.1.2,MacIntel,60,,,,z,1,1.159485,0,133,133,117,1,,,,,,,,
,,,,,,,,,,,difentions,difortions,DIFENTIONS,RLNW,z,4546,2020-10-15_12h39.40.740,ColomboPrimingTaskD,2020.1.2,MacIntel,60,,,,z,1,3.40882,0,134,134,95,1,,,,,,,,
,,,,,,,,,,,callage,calluze,CALLAGE,RLNW,z,4546,2020-10-15_12h39.40.740,ColomboPrimingTaskD,2020.1.2,MacIntel,60,,,,z,1,1.676925,0,135,135,83,1,,,,,,,,
,,,,,,,,,,,crockle,chickle,CROCKLE,RLNW,z,4546,2020-10-15_12h39.40.740,ColomboPrimingTaskD,2020.1.2,MacIntel,60,,,,z,1,2.774195,0,136,136,89,1,,,,,,,,
,,,,,,,,,,,around,aroild,AROUND,RL2,m,4546,2020-10-15_12h39.40.740,ColomboPrimingTaskD,2020.1.2,MacIntel,60,,,,m,1,1.222085,0,137,137,2,1,,,,,,,,
,,,,,,,,,,,swump,suwmp,SWUMP,TLNW,z,4546,2020-10-15_12h39.40.740,ColomboPrimingTaskD,2020.1.2,MacIntel,60,,,,z,1,1.670145,0,138,138,144,1,,,,,,,,
,,,,,,,,,,,round,ronud,ROUND,TL2,m,4546,2020-10-15_12h39.40.740,ColomboPrimingTaskD,2020.1.2,MacIntel,60,,,,m,1,0.9992,0,139,139,55,1,,,,,,,,
,,,,,,,,,,,birthday,birthloy,BIRTHDAY,RL2,m,4546,2020-10-15_12h39.40.740,ColomboPrimingTaskD,2020.1.2,MacIntel,60,,,,m,1,1.539685,0,140,140,6,1,,,,,,,,
,,,,,,,,,,,skirping,skriping,SKIRPING,TLNW,z,4546,2020-10-15_12h39.40.740,ColomboPrimingTaskD,2020.1.2,MacIntel,60,,,,z,1,1.485785,0,141,141,131,1,,,,,,,,
,,,,,,,,,,,story,slary,STORY,RL1,m,4546,2020-10-15_12h39.40.740,ColomboPrimingTaskD,2020.1.2,MacIntel,60,,,,m,1,0.722875,0,142,142,66,1,,,,,,,,
,,,,,,,,,,,holmits,hofnits,HOLMITS,RLNW,z,4546,2020-10-15_12h39.40.740,ColomboPrimingTaskD,2020.1.2,MacIntel,60,,,,z,1,0.84779,0,143,143,108,1,,,,,,,,
,,,,,,,,,,,chupter,chufler,CHUPTER,RLNW,z,4546,2020-10-15_12h39.40.740,ColomboPrimingTaskD,2020.1.2,MacIntel,60,,,,z,1,1.08541,0,144,144,87,1,,,,,,,,
,,,,,,,,,,,apting,azking,APTING,RLNW,z,4546,2020-10-15_12h39.40.740,ColomboPrimingTaskD,2020.1.2,MacIntel,60,,,,z,1,0.792305,0,145,145,78,1,,,,,,,,
,,,,,,,,,,,curfomers,confomers,CURFOMERS,RLNW,z,4546,2020-10-15_12h39.40.740,ColomboPrimingTaskD,2020.1.2,MacIntel,60,,,,z,1,1.639705,0,146,146,93,1,,,,,,,,
,,,,,,,,,,,rimble,ribmle,RIMBLE,TLNW,z,4546,2020-10-15_12h39.40.740,ColomboPrimingTaskD,2020.1.2,MacIntel,60,,,,z,1,0.73257,0,147,147,127,1,,,,,,,,
,,,,,,,,,,,sibble,siblbe,SIBBLE,TLNW,z,4546,2020-10-15_12h39.40.740,ColomboPrimingTaskD,2020.1.2,MacIntel,60,,,,z,1,0.723745,0,148,148,129,1,,,,,,,,
,,,,,,,,,,,midute,midoke,MIDUTE,RLNW,z,4546,2020-10-15_12h39.40.740,ColomboPrimingTaskD,2020.1.2,MacIntel,60,,,,z,1,1.27806,0,149,149,114,1,,,,,,,,
,,,,,,,,,,,penguin,pengiun,PENGUIN,TL2,m,4546,2020-10-15_12h39.40.740,ColomboPrimingTaskD,2020.1.2,MacIntel,60,,,,m,1,1.86175,0,150,150,43,1,,,,,,,,
,,,,,,,,,,,dimotaurs,dizetaurs,DIMOTAURS,RLNW,z,4546,2020-10-15_12h39.40.740,ColomboPrimingTaskD,2020.1.2,MacIntel,60,,,,z,1,2.19387,0,151,151,94,1,,,,,,,,
,,,,,,,,,,,fulore,fitore,FULORE,RLNW,z,4546,2020-10-15_12h39.40.740,ColomboPrimingTaskD,2020.1.2,MacIntel,60,,,,z,1,1.352215,0,152,152,103,1,,,,,,,,
,,,,,,,,,,,loarnt,lozint,LOARNT,RLNW,z,4546,2020-10-15_12h39.40.740,ColomboPrimingTaskD,2020.1.2,MacIntel,60,,,,z,1,0.8331,0,153,153,110,1,,,,,,,,
,,,,,,,,,,,plain,plian,PLAIN,TL2,m,4546,2020-10-15_12h39.40.740,ColomboPrimingTaskD,2020.1.2,MacIntel,60,,,,m,1,1.50391,0,154,154,46,1,,,,,,,,
,,,,,,,,,,,singer,sinegr,SINGER,TL2,m,4546,2020-10-15_12h39.40.740,ColomboPrimingTaskD,2020.1.2,MacIntel,60,,,,m,1,1.17603,0,155,155,57,1,,,,,,,,
,,,,,,,,,,,,,,,,4546,2020-10-15_12h39.40.740,ColomboPrimingTaskD,2020.1.2,MacIntel,60,,,,,,,,,,,,space,67.56544, blessing,space,28.62709, we can all just sit back and relax,return,15.90373
