Space1.keys,Space1.rt,Space2.keys,Space2.rt,key_resp.keys,key_resp.corr,key_resp.rt,Practice_loop.thisRepN,Practice_loop.thisTrialN,Practice_loop.thisN,Practice_loop.thisIndex,Practice_loop.ran,Target1,Prime,Target2,Type,CorrAns,Participants I.D.,date,expName,psychopyVersion,OS,frameRate,Space3.keys,Space3.rt,key_resp_2.keys,key_resp_2.corr,key_resp_2.rt,trials.thisRepN,trials.thisTrialN,trials.thisN,trials.thisIndex,trials.ran,key_resp_3.keys,key_resp_3.rt,typedWord,key_resp_4.keys,key_resp_4.rt,typedWord2,key_resp_5.keys,key_resp_5.rt
space,0.789165,space,5.598375,z,1,0.469995,0,0,0,22,1,chfistmas,chrustmas,CHFISTMAS,NWRL,z,4732,2020-08-04_08h06.48.866,ColomboPrimingTaskD,2020.1.2,Win32,60,,,,,,,,,,,,,,,,,,
,,,,z,1,0.62966,0,1,1,12,1,codfort,cofdort,CODFORT,NWTL,z,4732,2020-08-04_08h06.48.866,ColomboPrimingTaskD,2020.1.2,Win32,60,,,,,,,,,,,,,,,,,,
,,,,z,1,0.543735,0,2,2,17,1,flech,felch,FLECH,NWTL,z,4732,2020-08-04_08h06.48.866,ColomboPrimingTaskD,2020.1.2,Win32,60,,,,,,,,,,,,,,,,,,
,,,,z,1,0.433825,0,3,3,16,1,clirate,crilate,CLIRATE,NWTL,z,4732,2020-08-04_08h06.48.866,ColomboPrimingTaskD,2020.1.2,Win32,60,,,,,,,,,,,,,,,,,,
,,,,m,1,0.66397,0,4,4,9,1,parcel,pafbel,PARCEL,WRL,m,4732,2020-08-04_08h06.48.866,ColomboPrimingTaskD,2020.1.2,Win32,60,,,,,,,,,,,,,,,,,,
,,,,z,1,0.51528,0,5,5,14,1,dinital,ditinal,DINITAL,NWTL,z,4732,2020-08-04_08h06.48.866,ColomboPrimingTaskD,2020.1.2,Win32,60,,,,,,,,,,,,,,,,,,
,,,,z,1,0.58224,0,6,6,19,1,bacoon,barkon,BACOON,NWRL,z,4732,2020-08-04_08h06.48.866,ColomboPrimingTaskD,2020.1.2,Win32,60,,,,,,,,,,,,,,,,,,
,,,,m,1,0.44143,0,7,7,7,1,nursery,nuftery,NURSERY,WRL,m,4732,2020-08-04_08h06.48.866,ColomboPrimingTaskD,2020.1.2,Win32,60,,,,,,,,,,,,,,,,,,
,,,,m,1,0.499605,0,8,8,10,1,twitter,twitofr,TWITTER,WRL,m,4732,2020-08-04_08h06.48.866,ColomboPrimingTaskD,2020.1.2,Win32,60,,,,,,,,,,,,,,,,,,
,,,,m,1,0.43293,0,9,9,8,1,picture,pimrure,PICTURE,WRL,m,4732,2020-08-04_08h06.48.866,ColomboPrimingTaskD,2020.1.2,Win32,60,,,,,,,,,,,,,,,,,,
,,,,m,1,0.527575,0,10,10,11,1,violin,viprin,VIOLIN,WRL,m,4732,2020-08-04_08h06.48.866,ColomboPrimingTaskD,2020.1.2,Win32,60,,,,,,,,,,,,,,,,,,
,,,,m,1,0.451095,0,11,11,4,1,laundry,laudnry,LAUNDRY,WTL,m,4732,2020-08-04_08h06.48.866,ColomboPrimingTaskD,2020.1.2,Win32,60,,,,,,,,,,,,,,,,,,
,,,,z,1,0.49563,0,12,12,15,1,etephant,etpheant,ETEPHANT,NWTL,z,4732,2020-08-04_08h06.48.866,ColomboPrimingTaskD,2020.1.2,Win32,60,,,,,,,,,,,,,,,,,,
,,,,z,1,0.51536,0,13,13,21,1,campet,cantet,CAMPET,NWRL,z,4732,2020-08-04_08h06.48.866,ColomboPrimingTaskD,2020.1.2,Win32,60,,,,,,,,,,,,,,,,,,
,,,,m,1,0.488965,0,14,14,0,1,coral,croal,CORAL,WTL,m,4732,2020-08-04_08h06.48.866,ColomboPrimingTaskD,2020.1.2,Win32,60,,,,,,,,,,,,,,,,,,
,,,,m,1,0.519835,0,15,15,3,1,fifty,fitfy,FIFTY,WTL,m,4732,2020-08-04_08h06.48.866,ColomboPrimingTaskD,2020.1.2,Win32,60,,,,,,,,,,,,,,,,,,
,,,,m,1,0.393815,0,16,16,5,1,library,lirbary,LIBRARY,WTL,m,4732,2020-08-04_08h06.48.866,ColomboPrimingTaskD,2020.1.2,Win32,60,,,,,,,,,,,,,,,,,,
,,,,z,1,0.58012,0,17,17,18,1,alacus,afogus,ALACUS,NWRL,z,4732,2020-08-04_08h06.48.866,ColomboPrimingTaskD,2020.1.2,Win32,60,,,,,,,,,,,,,,,,,,
,,,,z,1,0.49259,0,18,18,13,1,cobcert,cocbert,COBCERT,NWTL,z,4732,2020-08-04_08h06.48.866,ColomboPrimingTaskD,2020.1.2,Win32,60,,,,,,,,,,,,,,,,,,
,,,,m,1,0.44204,0,19,19,1,1,elderflower,elferdower,ELDERFLOWER,WTL,m,4732,2020-08-04_08h06.48.866,ColomboPrimingTaskD,2020.1.2,Win32,60,,,,,,,,,,,,,,,,,,
,,,,m,1,0.63034,0,20,20,6,1,monopoly,mogomoly,MONOPOLY,WRL,m,4732,2020-08-04_08h06.48.866,ColomboPrimingTaskD,2020.1.2,Win32,60,,,,,,,,,,,,,,,,,,
,,,,m,1,0.50965,0,21,21,2,1,festival,fetsival,FESTIVAL,WTL,m,4732,2020-08-04_08h06.48.866,ColomboPrimingTaskD,2020.1.2,Win32,60,,,,,,,,,,,,,,,,,,
,,,,z,1,0.524035,0,22,22,23,1,cnipper,crupper,CNIPPER,NWRL,z,4732,2020-08-04_08h06.48.866,ColomboPrimingTaskD,2020.1.2,Win32,60,,,,,,,,,,,,,,,,,,
,,,,z,1,0.580705,0,23,23,20,1,bubbfes,buddfes,BUBBFES,NWRL,z,4732,2020-08-04_08h06.48.866,ColomboPrimingTaskD,2020.1.2,Win32,60,,,,,,,,,,,,,,,,,,
,,,,,,,,,,,,biscuit,biscoat,BISCUIT,RL2,m,4732,2020-08-04_08h06.48.866,ColomboPrimingTaskD,2020.1.2,Win32,60,space,1.436525,m,1,0.44661,0,0,0,7,1,,,,,,,,
,,,,,,,,,,,,difentions,difortions,DIFENTIONS,RLNW,z,4732,2020-08-04_08h06.48.866,ColomboPrimingTaskD,2020.1.2,Win32,60,,,z,1,0.477285,0,1,1,95,1,,,,,,,,
,,,,,,,,,,,,roinwater,rionwater,ROINWATER,TLNW,z,4732,2020-08-04_08h06.48.866,ColomboPrimingTaskD,2020.1.2,Win32,60,,,z,1,0.479615,0,2,2,123,1,,,,,,,,
,,,,,,,,,,,,instant,isntant,INSTANT,TL1,m,4732,2020-08-04_08h06.48.866,ColomboPrimingTaskD,2020.1.2,Win32,60,,,m,1,0.440315,0,3,3,29,1,,,,,,,,
,,,,,,,,,,,,scraff,srcaff,SCRAFF,TLNW,z,4732,2020-08-04_08h06.48.866,ColomboPrimingTaskD,2020.1.2,Win32,60,,,z,1,0.514975,0,4,4,128,1,,,,,,,,
,,,,,,,,,,,,singer,sinegr,SINGER,TL2,m,4732,2020-08-04_08h06.48.866,ColomboPrimingTaskD,2020.1.2,Win32,60,,,m,1,0.417225,0,5,5,57,1,,,,,,,,
,,,,,,,,,,,,penguin,pengiun,PENGUIN,TL2,m,4732,2020-08-04_08h06.48.866,ColomboPrimingTaskD,2020.1.2,Win32,60,,,m,1,0.412795,0,6,6,43,1,,,,,,,,
,,,,,,,,,,,,curfomers,confomers,CURFOMERS,RLNW,z,4732,2020-08-04_08h06.48.866,ColomboPrimingTaskD,2020.1.2,Win32,60,,,z,1,0.484545,0,7,7,93,1,,,,,,,,
,,,,,,,,,,,,privary,privray,PRIVARY,TLNW,z,4732,2020-08-04_08h06.48.866,ColomboPrimingTaskD,2020.1.2,Win32,60,,,z,1,0.512685,0,8,8,121,1,,,,,,,,
,,,,,,,,,,,,almond,almard,ALMOND,RL2,m,4732,2020-08-04_08h06.48.866,ColomboPrimingTaskD,2020.1.2,Win32,60,,,z,0,0.396305,0,9,9,0,1,,,,,,,,
,,,,,,,,,,,,hibernate,hbiernate,HIBERNATE,TL1,m,4732,2020-08-04_08h06.48.866,ColomboPrimingTaskD,2020.1.2,Win32,60,,,z,0,0.455205,0,10,10,24,1,,,,,,,,
,,,,,,,,,,,,hospital,hsopital,HOSPITAL,TL1,m,4732,2020-08-04_08h06.48.866,ColomboPrimingTaskD,2020.1.2,Win32,60,,,m,1,0.43678,0,11,11,26,1,,,,,,,,
,,,,,,,,,,,,dimotaurs,dizetaurs,DIMOTAURS,RLNW,z,4732,2020-08-04_08h06.48.866,ColomboPrimingTaskD,2020.1.2,Win32,60,,,z,1,0.46603,0,12,12,94,1,,,,,,,,
,,,,,,,,,,,,believe,beliane,BELIEVE,RL2,m,4732,2020-08-04_08h06.48.866,ColomboPrimingTaskD,2020.1.2,Win32,60,,,m,1,0.63145,0,13,13,5,1,,,,,,,,
,,,,,,,,,,,,awful,awdal,AWFUL,RL2,m,4732,2020-08-04_08h06.48.866,ColomboPrimingTaskD,2020.1.2,Win32,60,,,m,1,0.563415,0,14,14,3,1,,,,,,,,
,,,,,,,,,,,,markles,martnes,MARKLES,RLNW,z,4732,2020-08-04_08h06.48.866,ColomboPrimingTaskD,2020.1.2,Win32,60,,,z,1,0.45104,0,15,15,112,1,,,,,,,,
,,,,,,,,,,,,emter,erfer,EMTER,RLNW,z,4732,2020-08-04_08h06.48.866,ColomboPrimingTaskD,2020.1.2,Win32,60,,,z,1,0.66697,0,16,16,99,1,,,,,,,,
,,,,,,,,,,,,chupter,chufler,CHUPTER,RLNW,z,4732,2020-08-04_08h06.48.866,ColomboPrimingTaskD,2020.1.2,Win32,60,,,z,1,0.51972,0,17,17,87,1,,,,,,,,
,,,,,,,,,,,,standust,stadnust,STANDUST,TLNW,z,4732,2020-08-04_08h06.48.866,ColomboPrimingTaskD,2020.1.2,Win32,60,,,m,0,0.809035,0,18,18,138,1,,,,,,,,
,,,,,,,,,,,,playnime,planyime,PLAYNIME,TLNW,z,4732,2020-08-04_08h06.48.866,ColomboPrimingTaskD,2020.1.2,Win32,60,,,z,1,0.61682,0,19,19,120,1,,,,,,,,
,,,,,,,,,,,,sturfish,strufish,STURFISH,TLNW,z,4732,2020-08-04_08h06.48.866,ColomboPrimingTaskD,2020.1.2,Win32,60,,,z,1,0.512905,0,20,20,139,1,,,,,,,,
,,,,,,,,,,,,spirit,smorit,SPIRIT,RL1,m,4732,2020-08-04_08h06.48.866,ColomboPrimingTaskD,2020.1.2,Win32,60,,,m,1,0.49205,0,21,21,63,1,,,,,,,,
,,,,,,,,,,,,rimble,ribmle,RIMBLE,TLNW,z,4732,2020-08-04_08h06.48.866,ColomboPrimingTaskD,2020.1.2,Win32,60,,,z,1,0.5156,0,22,22,127,1,,,,,,,,
,,,,,,,,,,,,cammied,cammoad,CAMMIED,RLNW,z,4732,2020-08-04_08h06.48.866,ColomboPrimingTaskD,2020.1.2,Win32,60,,,z,1,0.48857,0,23,23,85,1,,,,,,,,
,,,,,,,,,,,,stody,sotdy,STODY,TLNW,z,4732,2020-08-04_08h06.48.866,ColomboPrimingTaskD,2020.1.2,Win32,60,,,z,1,0.55055,0,24,24,142,1,,,,,,,,
,,,,,,,,,,,,following,followarg,FOLLOWING,RL2,m,4732,2020-08-04_08h06.48.866,ColomboPrimingTaskD,2020.1.2,Win32,60,,,m,1,0.44733,0,25,25,18,1,,,,,,,,
,,,,,,,,,,,,sibble,siblbe,SIBBLE,TLNW,z,4732,2020-08-04_08h06.48.866,ColomboPrimingTaskD,2020.1.2,Win32,60,,,z,1,0.651225,0,26,26,129,1,,,,,,,,
,,,,,,,,,,,,sporks,sproks,SPORKS,TLNW,z,4732,2020-08-04_08h06.48.866,ColomboPrimingTaskD,2020.1.2,Win32,60,,,z,1,0.533035,0,27,27,132,1,,,,,,,,
,,,,,,,,,,,,match,mtach,MATCH,TL1,m,4732,2020-08-04_08h06.48.866,ColomboPrimingTaskD,2020.1.2,Win32,60,,,m,1,0.443445,0,28,28,35,1,,,,,,,,
,,,,,,,,,,,,drink,drosk,DRINK,RL2,m,4732,2020-08-04_08h06.48.866,ColomboPrimingTaskD,2020.1.2,Win32,60,,,m,1,0.4272,0,29,29,14,1,,,,,,,,
,,,,,,,,,,,,plastic,plasitc,PLASTIC,TL2,m,4732,2020-08-04_08h06.48.866,ColomboPrimingTaskD,2020.1.2,Win32,60,,,m,1,0.402545,0,30,30,47,1,,,,,,,,
,,,,,,,,,,,,scratch,scracth,SCRATCH,TL2,m,4732,2020-08-04_08h06.48.866,ColomboPrimingTaskD,2020.1.2,Win32,60,,,m,1,0.362285,0,31,31,56,1,,,,,,,,
,,,,,,,,,,,,rolin,roiln,ROLIN,TLNW,z,4732,2020-08-04_08h06.48.866,ColomboPrimingTaskD,2020.1.2,Win32,60,,,z,1,0.444815,0,32,32,126,1,,,,,,,,
,,,,,,,,,,,,asbrunaut,andrunaut,ASBRUNAUT,RLNW,z,4732,2020-08-04_08h06.48.866,ColomboPrimingTaskD,2020.1.2,Win32,60,,,z,1,0.51291,0,33,33,80,1,,,,,,,,
,,,,,,,,,,,,winter,wycter,WINTER,RL1,m,4732,2020-08-04_08h06.48.866,ColomboPrimingTaskD,2020.1.2,Win32,60,,,m,1,0.434275,0,34,34,77,1,,,,,,,,
,,,,,,,,,,,,orchestra,ocrhesta,ORCHESTRA,TL1,m,4732,2020-08-04_08h06.48.866,ColomboPrimingTaskD,2020.1.2,Win32,60,,,m,1,0.4807,0,35,35,38,1,,,,,,,,
,,,,,,,,,,,,foreign,froeign,FOREIGN,TL1,m,4732,2020-08-04_08h06.48.866,ColomboPrimingTaskD,2020.1.2,Win32,60,,,m,1,0.43495,0,36,36,19,1,,,,,,,,
,,,,,,,,,,,,forty,froty,FORTY,TL1,m,4732,2020-08-04_08h06.48.866,ColomboPrimingTaskD,2020.1.2,Win32,60,,,m,1,0.40015,0,37,37,21,1,,,,,,,,
,,,,,,,,,,,,skirping,skriping,SKIRPING,TLNW,z,4732,2020-08-04_08h06.48.866,ColomboPrimingTaskD,2020.1.2,Win32,60,,,z,1,0.45393,0,38,38,131,1,,,,,,,,
,,,,,,,,,,,,kitchen,ktichen,KITCHEN,TL1,m,4732,2020-08-04_08h06.48.866,ColomboPrimingTaskD,2020.1.2,Win32,60,,,m,1,0.42137,0,39,39,30,1,,,,,,,,
,,,,,,,,,,,,pavement,pavemnet,PAVEMENT,TL2,m,4732,2020-08-04_08h06.48.866,ColomboPrimingTaskD,2020.1.2,Win32,60,,,m,1,0.514585,0,40,40,42,1,,,,,,,,
,,,,,,,,,,,,stimp,stmip,STIMP,TLNW,z,4732,2020-08-04_08h06.48.866,ColomboPrimingTaskD,2020.1.2,Win32,60,,,z,1,0.48205,0,41,41,137,1,,,,,,,,
,,,,,,,,,,,,midute,midoke,MIDUTE,RLNW,z,4732,2020-08-04_08h06.48.866,ColomboPrimingTaskD,2020.1.2,Win32,60,,,m,0,0.58747,0,42,42,114,1,,,,,,,,
,,,,,,,,,,,,pevuliar,peuvliar,PEVULIAR,TLNW,z,4732,2020-08-04_08h06.48.866,ColomboPrimingTaskD,2020.1.2,Win32,60,,,z,1,0.483485,0,43,43,119,1,,,,,,,,
,,,,,,,,,,,,onerall,onreall,ONERALL,TLNW,z,4732,2020-08-04_08h06.48.866,ColomboPrimingTaskD,2020.1.2,Win32,60,,,m,0,0.44852,0,44,44,117,1,,,,,,,,
,,,,,,,,,,,,summer,sirmer,SUMMER,RL1,m,4732,2020-08-04_08h06.48.866,ColomboPrimingTaskD,2020.1.2,Win32,60,,,z,0,0.48145,0,45,45,67,1,,,,,,,,
,,,,,,,,,,,,swallow,smollow,SWALLOW,RL1,m,4732,2020-08-04_08h06.48.866,ColomboPrimingTaskD,2020.1.2,Win32,60,,,m,1,0.7086,0,46,46,69,1,,,,,,,,
,,,,,,,,,,,,blanket,blandit,BLANKET,RL2,m,4732,2020-08-04_08h06.48.866,ColomboPrimingTaskD,2020.1.2,Win32,60,,,m,1,0.49855,0,47,47,8,1,,,,,,,,
,,,,,,,,,,,,story,slary,STORY,RL1,m,4732,2020-08-04_08h06.48.866,ColomboPrimingTaskD,2020.1.2,Win32,60,,,m,1,0.53579,0,48,48,66,1,,,,,,,,
,,,,,,,,,,,,wutch,wucth,WUTCH,TLNW,z,4732,2020-08-04_08h06.48.866,ColomboPrimingTaskD,2020.1.2,Win32,60,,,z,1,0.564655,0,49,49,154,1,,,,,,,,
,,,,,,,,,,,,legend,lgeend,LEGEND,TL1,m,4732,2020-08-04_08h06.48.866,ColomboPrimingTaskD,2020.1.2,Win32,60,,,m,1,0.45358,0,50,50,31,1,,,,,,,,
,,,,,,,,,,,,powerful,powerufl,POWERFUL,TL2,m,4732,2020-08-04_08h06.48.866,ColomboPrimingTaskD,2020.1.2,Win32,60,,,m,1,0.38157,0,51,51,49,1,,,,,,,,
,,,,,,,,,,,,stoff,sotff,STOFF,TLNW,z,4732,2020-08-04_08h06.48.866,ColomboPrimingTaskD,2020.1.2,Win32,60,,,z,1,0.506405,0,52,52,134,1,,,,,,,,
,,,,,,,,,,,,rolief,roleif,ROLIEF,TLNW,z,4732,2020-08-04_08h06.48.866,ColomboPrimingTaskD,2020.1.2,Win32,60,,,z,1,0.48008,0,53,53,125,1,,,,,,,,
,,,,,,,,,,,,grufes,glofes,GRUFES,RLNW,z,4732,2020-08-04_08h06.48.866,ColomboPrimingTaskD,2020.1.2,Win32,60,,,z,1,0.55398,0,54,54,105,1,,,,,,,,
,,,,,,,,,,,,woary,woray,WOARY,TLNW,z,4732,2020-08-04_08h06.48.866,ColomboPrimingTaskD,2020.1.2,Win32,60,,,z,1,0.447405,0,55,55,153,1,,,,,,,,
,,,,,,,,,,,,stoze,sotze,STOZE,TLNW,z,4732,2020-08-04_08h06.48.866,ColomboPrimingTaskD,2020.1.2,Win32,60,,,z,1,0.41153,0,56,56,141,1,,,,,,,,
,,,,,,,,,,,,stull,stlul,STULL,TLNW,z,4732,2020-08-04_08h06.48.866,ColomboPrimingTaskD,2020.1.2,Win32,60,,,z,1,0.453855,0,57,57,136,1,,,,,,,,
,,,,,,,,,,,,wilked,wikled,WILKED,TLNW,z,4732,2020-08-04_08h06.48.866,ColomboPrimingTaskD,2020.1.2,Win32,60,,,m,0,0.512855,0,58,58,152,1,,,,,,,,
,,,,,,,,,,,,holiday,hloiday,HOLIDAY,TL1,m,4732,2020-08-04_08h06.48.866,ColomboPrimingTaskD,2020.1.2,Win32,60,,,m,1,0.455125,0,59,59,25,1,,,,,,,,
,,,,,,,,,,,,patient,patinet,PATIENT,TL2,m,4732,2020-08-04_08h06.48.866,ColomboPrimingTaskD,2020.1.2,Win32,60,,,m,1,0.546425,0,60,60,41,1,,,,,,,,
,,,,,,,,,,,,meanwhile,maenwhile,MEANWHILE,TL1,m,4732,2020-08-04_08h06.48.866,ColomboPrimingTaskD,2020.1.2,Win32,60,,,m,1,0.538035,0,61,61,36,1,,,,,,,,
,,,,,,,,,,,,hotel,htoel,HOTEL,TL1,m,4732,2020-08-04_08h06.48.866,ColomboPrimingTaskD,2020.1.2,Win32,60,,,m,1,0.43172,0,62,62,27,1,,,,,,,,
,,,,,,,,,,,,market,mraket,MARKET,TL1,m,4732,2020-08-04_08h06.48.866,ColomboPrimingTaskD,2020.1.2,Win32,60,,,m,1,0.49773,0,63,63,34,1,,,,,,,,
,,,,,,,,,,,,tomay,toamy,TOMAY,TLNW,z,4732,2020-08-04_08h06.48.866,ColomboPrimingTaskD,2020.1.2,Win32,60,,,z,1,0.49813,0,64,64,149,1,,,,,,,,
,,,,,,,,,,,,forest,froest,FOREST,TL1,m,4732,2020-08-04_08h06.48.866,ColomboPrimingTaskD,2020.1.2,Win32,60,,,m,1,0.501195,0,65,65,20,1,,,,,,,,
,,,,,,,,,,,,sleeve,staeve,SLEEVE,RL1,m,4732,2020-08-04_08h06.48.866,ColomboPrimingTaskD,2020.1.2,Win32,60,,,m,1,0.691455,0,66,66,58,1,,,,,,,,
,,,,,,,,,,,,mirtioned,minfioned,MIRTIONED,RLNW,z,4732,2020-08-04_08h06.48.866,ColomboPrimingTaskD,2020.1.2,Win32,60,,,z,1,0.490545,0,67,67,113,1,,,,,,,,
,,,,,,,,,,,,niffling,nitffing,NIFFLING,RLNW,z,4732,2020-08-04_08h06.48.866,ColomboPrimingTaskD,2020.1.2,Win32,60,,,z,1,0.464215,0,68,68,116,1,,,,,,,,
,,,,,,,,,,,,ghost,gohst,GHOST,TL1,m,4732,2020-08-04_08h06.48.866,ColomboPrimingTaskD,2020.1.2,Win32,60,,,m,1,0.40672,0,69,69,22,1,,,,,,,,
,,,,,,,,,,,,pench,pnech,PENCH,TLNW,z,4732,2020-08-04_08h06.48.866,ColomboPrimingTaskD,2020.1.2,Win32,60,,,z,1,0.44431,0,70,70,118,1,,,,,,,,
,,,,,,,,,,,,environment,environmart,ENVIRONMENT,RL2,m,4732,2020-08-04_08h06.48.866,ColomboPrimingTaskD,2020.1.2,Win32,60,,,m,1,0.40799,0,71,71,16,1,,,,,,,,
,,,,,,,,,,,,stipping,stippnig,STIPPING,TLNW,z,4732,2020-08-04_08h06.48.866,ColomboPrimingTaskD,2020.1.2,Win32,60,,,z,1,0.419925,0,72,72,140,1,,,,,,,,
,,,,,,,,,,,,statue,skitue,STATUE,RL1,m,4732,2020-08-04_08h06.48.866,ColomboPrimingTaskD,2020.1.2,Win32,60,,,m,1,0.481535,0,73,73,64,1,,,,,,,,
,,,,,,,,,,,,chicken,chicwan,CHICKEN,RL2,m,4732,2020-08-04_08h06.48.866,ColomboPrimingTaskD,2020.1.2,Win32,60,,,m,1,0.46281,0,74,74,11,1,,,,,,,,
,,,,,,,,,,,,lying,liyng,LYING,TL1,m,4732,2020-08-04_08h06.48.866,ColomboPrimingTaskD,2020.1.2,Win32,60,,,m,1,0.434265,0,75,75,33,1,,,,,,,,
,,,,,,,,,,,,around,aroild,AROUND,RL2,m,4732,2020-08-04_08h06.48.866,ColomboPrimingTaskD,2020.1.2,Win32,60,,,m,1,0.469655,0,76,76,2,1,,,,,,,,
,,,,,,,,,,,,callage,calluze,CALLAGE,RLNW,z,4732,2020-08-04_08h06.48.866,ColomboPrimingTaskD,2020.1.2,Win32,60,,,z,1,0.636325,0,77,77,83,1,,,,,,,,
,,,,,,,,,,,,crishing,conshing,CRISHING,RLNW,z,4732,2020-08-04_08h06.48.866,ColomboPrimingTaskD,2020.1.2,Win32,60,,,z,1,0.54541,0,78,78,90,1,,,,,,,,
,,,,,,,,,,,,stilks,stliks,STILKS,TLNW,z,4732,2020-08-04_08h06.48.866,ColomboPrimingTaskD,2020.1.2,Win32,60,,,z,1,0.438305,0,79,79,135,1,,,,,,,,
,,,,,,,,,,,,senved,serced,SENVED,RLNW,z,4732,2020-08-04_08h06.48.866,ColomboPrimingTaskD,2020.1.2,Win32,60,,,z,1,0.473755,0,80,80,101,1,,,,,,,,
,,,,,,,,,,,,prince,pricne,PRINCE,TL2,m,4732,2020-08-04_08h06.48.866,ColomboPrimingTaskD,2020.1.2,Win32,60,,,m,1,0.548095,0,81,81,50,1,,,,,,,,
,,,,,,,,,,,,crims,cloms,CRIMS,RLNW,z,4732,2020-08-04_08h06.48.866,ColomboPrimingTaskD,2020.1.2,Win32,60,,,z,1,0.41469,0,82,82,91,1,,,,,,,,
,,,,,,,,,,,,robber,robebr,ROBBER,TL2,m,4732,2020-08-04_08h06.48.866,ColomboPrimingTaskD,2020.1.2,Win32,60,,,m,1,0.60209,0,83,83,54,1,,,,,,,,
,,,,,,,,,,,,spoff,sopff,SPOFF,TLNW,z,4732,2020-08-04_08h06.48.866,ColomboPrimingTaskD,2020.1.2,Win32,60,,,z,1,0.46186,0,84,84,143,1,,,,,,,,
,,,,,,,,,,,,thoatre,thotare,THOATRE,TLNW,z,4732,2020-08-04_08h06.48.866,ColomboPrimingTaskD,2020.1.2,Win32,60,,,z,1,0.449235,0,85,85,147,1,,,,,,,,
,,,,,,,,,,,,thought,treught,THOUGHT,RL1,m,4732,2020-08-04_08h06.48.866,ColomboPrimingTaskD,2020.1.2,Win32,60,,,m,1,0.631785,0,86,86,71,1,,,,,,,,
,,,,,,,,,,,,canivan,canuran,CANIVAN,RLNW,z,4732,2020-08-04_08h06.48.866,ColomboPrimingTaskD,2020.1.2,Win32,60,,,z,1,0.65938,0,87,87,84,1,,,,,,,,
,,,,,,,,,,,,sunset,simset,SUNSET,RL1,m,4732,2020-08-04_08h06.48.866,ColomboPrimingTaskD,2020.1.2,Win32,60,,,z,0,0.45347,0,88,88,68,1,,,,,,,,
,,,,,,,,,,,,panther,pantehr,PANTHER,TL2,m,4732,2020-08-04_08h06.48.866,ColomboPrimingTaskD,2020.1.2,Win32,60,,,m,1,0.61453,0,89,89,40,1,,,,,,,,
,,,,,,,,,,,,plain,plian,PLAIN,TL2,m,4732,2020-08-04_08h06.48.866,ColomboPrimingTaskD,2020.1.2,Win32,60,,,m,1,0.51025,0,90,90,46,1,,,,,,,,
,,,,,,,,,,,,print,prnit,PRINT,TL2,m,4732,2020-08-04_08h06.48.866,ColomboPrimingTaskD,2020.1.2,Win32,60,,,m,1,0.48126,0,91,91,51,1,,,,,,,,
,,,,,,,,,,,,crockle,chickle,CROCKLE,RLNW,z,4732,2020-08-04_08h06.48.866,ColomboPrimingTaskD,2020.1.2,Win32,60,,,z,1,0.539015,0,92,92,89,1,,,,,,,,
,,,,,,,,,,,,bidger,bofger,BIDGER,RLNW,z,4732,2020-08-04_08h06.48.866,ColomboPrimingTaskD,2020.1.2,Win32,60,,,z,1,0.548175,0,93,93,81,1,,,,,,,,
,,,,,,,,,,,,heaven,haeven,HEAVEN,TL1,m,4732,2020-08-04_08h06.48.866,ColomboPrimingTaskD,2020.1.2,Win32,60,,,m,1,0.415355,0,94,94,23,1,,,,,,,,
,,,,,,,,,,,,round,ronud,ROUND,TL2,m,4732,2020-08-04_08h06.48.866,ColomboPrimingTaskD,2020.1.2,Win32,60,,,m,1,0.379795,0,95,95,55,1,,,,,,,,
,,,,,,,,,,,,yowned,yonwed,YOWNED,TLNW,z,4732,2020-08-04_08h06.48.866,ColomboPrimingTaskD,2020.1.2,Win32,60,,,z,1,0.46991,0,96,96,155,1,,,,,,,,
,,,,,,,,,,,,renorded,renroded,RENORDED,TLNW,z,4732,2020-08-04_08h06.48.866,ColomboPrimingTaskD,2020.1.2,Win32,60,,,z,1,0.496845,0,97,97,124,1,,,,,,,,
,,,,,,,,,,,,clavely,chovely,CLAVELY,RLNW,z,4732,2020-08-04_08h06.48.866,ColomboPrimingTaskD,2020.1.2,Win32,60,,,z,1,0.617305,0,98,98,88,1,,,,,,,,
,,,,,,,,,,,,entry,endly,ENTRY,RL2,m,4732,2020-08-04_08h06.48.866,ColomboPrimingTaskD,2020.1.2,Win32,60,,,m,1,0.62996,0,99,99,15,1,,,,,,,,
,,,,,,,,,,,,twotched,towtched,TWOTCHED,TLNW,z,4732,2020-08-04_08h06.48.866,ColomboPrimingTaskD,2020.1.2,Win32,60,,,z,1,0.449065,0,100,100,151,1,,,,,,,,
,,,,,,,,,,,,leopard,loepard,LEOPARD,TL1,m,4732,2020-08-04_08h06.48.866,ColomboPrimingTaskD,2020.1.2,Win32,60,,,m,1,0.597665,0,101,101,32,1,,,,,,,,
,,,,,,,,,,,,influence,ifnluence,INFLUENCE,TL1,m,4732,2020-08-04_08h06.48.866,ColomboPrimingTaskD,2020.1.2,Win32,60,,,m,1,0.454865,0,102,102,28,1,,,,,,,,
,,,,,,,,,,,,referee,refeere,REFEREE,TL2,m,4732,2020-08-04_08h06.48.866,ColomboPrimingTaskD,2020.1.2,Win32,60,,,m,1,0.44962,0,103,103,52,1,,,,,,,,
,,,,,,,,,,,,button,butsan,BUTTON,RL2,m,4732,2020-08-04_08h06.48.866,ColomboPrimingTaskD,2020.1.2,Win32,60,,,m,1,0.493025,0,104,104,10,1,,,,,,,,
,,,,,,,,,,,,tronch,tornch,TRONCH,TLNW,z,4732,2020-08-04_08h06.48.866,ColomboPrimingTaskD,2020.1.2,Win32,60,,,z,1,0.448145,0,105,105,150,1,,,,,,,,
,,,,,,,,,,,,pigeon,pigoen,PIGEON,TL2,m,4732,2020-08-04_08h06.48.866,ColomboPrimingTaskD,2020.1.2,Win32,60,,,m,1,0.464695,0,106,106,45,1,,,,,,,,
,,,,,,,,,,,,skiffed,skfifed,SKIFFED,TLNW,z,4732,2020-08-04_08h06.48.866,ColomboPrimingTaskD,2020.1.2,Win32,60,,,z,1,0.455595,0,107,107,130,1,,,,,,,,
,,,,,,,,,,,,dored,dized,DORED,RLNW,z,4732,2020-08-04_08h06.48.866,ColomboPrimingTaskD,2020.1.2,Win32,60,,,z,1,0.57764,0,108,108,96,1,,,,,,,,
,,,,,,,,,,,,trapped,twupped,TRAPPED,RL1,m,4732,2020-08-04_08h06.48.866,ColomboPrimingTaskD,2020.1.2,Win32,60,,,m,1,0.509125,0,109,109,73,1,,,,,,,,
,,,,,,,,,,,,smooth,swioth,SMOOTH,RL1,m,4732,2020-08-04_08h06.48.866,ColomboPrimingTaskD,2020.1.2,Win32,60,,,m,1,0.447585,0,110,110,59,1,,,,,,,,
,,,,,,,,,,,,lopely,lopary,LOPELY,RLNW,z,4732,2020-08-04_08h06.48.866,ColomboPrimingTaskD,2020.1.2,Win32,60,,,z,1,0.448185,0,111,111,111,1,,,,,,,,
,,,,,,,,,,,,heafs,heils,HEAFS,RLNW,z,4732,2020-08-04_08h06.48.866,ColomboPrimingTaskD,2020.1.2,Win32,60,,,z,1,0.414125,0,112,112,106,1,,,,,,,,
,,,,,,,,,,,,fulore,fitore,FULORE,RLNW,z,4732,2020-08-04_08h06.48.866,ColomboPrimingTaskD,2020.1.2,Win32,60,,,z,1,0.54088,0,113,113,103,1,,,,,,,,
,,,,,,,,,,,,taidor,tiador,TAIDOR,TLNW,z,4732,2020-08-04_08h06.48.866,ColomboPrimingTaskD,2020.1.2,Win32,60,,,z,1,0.4455,0,114,114,145,1,,,,,,,,
,,,,,,,,,,,,spailt,spalit,SPAILT,TLNW,z,4732,2020-08-04_08h06.48.866,ColomboPrimingTaskD,2020.1.2,Win32,60,,,z,1,0.387955,0,115,115,133,1,,,,,,,,
,,,,,,,,,,,,hoafe,houte,HOAFE,RLNW,z,4732,2020-08-04_08h06.48.866,ColomboPrimingTaskD,2020.1.2,Win32,60,,,z,1,0.399865,0,116,116,107,1,,,,,,,,
,,,,,,,,,,,,holmits,hofnits,HOLMITS,RLNW,z,4732,2020-08-04_08h06.48.866,ColomboPrimingTaskD,2020.1.2,Win32,60,,,z,1,0.50932,0,117,117,108,1,,,,,,,,
,,,,,,,,,,,,gniching,gruching,GNICHING,RLNW,z,4732,2020-08-04_08h06.48.866,ColomboPrimingTaskD,2020.1.2,Win32,60,,,z,1,0.510765,0,118,118,104,1,,,,,,,,
,,,,,,,,,,,,alphabet,alphamot,ALPHABET,RL2,m,4732,2020-08-04_08h06.48.866,ColomboPrimingTaskD,2020.1.2,Win32,60,,,m,1,0.433685,0,119,119,1,1,,,,,,,,
,,,,,,,,,,,,stomach,slumach,STOMACH,RL1,m,4732,2020-08-04_08h06.48.866,ColomboPrimingTaskD,2020.1.2,Win32,60,,,m,1,0.453565,0,120,120,65,1,,,,,,,,
,,,,,,,,,,,,natural,ntaural,NATURAL,TL1,m,4732,2020-08-04_08h06.48.866,ColomboPrimingTaskD,2020.1.2,Win32,60,,,m,1,0.327505,0,121,121,37,1,,,,,,,,
,,,,,,,,,,,,petrol,petorl,PETROL,TL2,m,4732,2020-08-04_08h06.48.866,ColomboPrimingTaskD,2020.1.2,Win32,60,,,m,1,0.429235,0,122,122,44,1,,,,,,,,
,,,,,,,,,,,,swump,suwmp,SWUMP,TLNW,z,4732,2020-08-04_08h06.48.866,ColomboPrimingTaskD,2020.1.2,Win32,60,,,z,1,0.56318,0,123,123,144,1,,,,,,,,
,,,,,,,,,,,,snack,swyck,SNACK,RL1,m,4732,2020-08-04_08h06.48.866,ColomboPrimingTaskD,2020.1.2,Win32,60,,,m,1,0.49762,0,124,124,60,1,,,,,,,,
,,,,,,,,,,,,loarnt,lozint,LOARNT,RLNW,z,4732,2020-08-04_08h06.48.866,ColomboPrimingTaskD,2020.1.2,Win32,60,,,z,1,0.41721,0,125,125,110,1,,,,,,,,
,,,,,,,,,,,,birthday,birthloy,BIRTHDAY,RL2,m,4732,2020-08-04_08h06.48.866,ColomboPrimingTaskD,2020.1.2,Win32,60,,,m,1,0.39231,0,126,126,6,1,,,,,,,,
,,,,,,,,,,,,wardrobe,wendrobe,WARDROBE,RL1,m,4732,2020-08-04_08h06.48.866,ColomboPrimingTaskD,2020.1.2,Win32,60,,,m,1,0.546065,0,127,127,75,1,,,,,,,,
,,,,,,,,,,,,esferiment,emteriment,ESFERIMENT,RLNW,z,4732,2020-08-04_08h06.48.866,ColomboPrimingTaskD,2020.1.2,Win32,60,,,z,1,0.481575,0,128,128,100,1,,,,,,,,
,,,,,,,,,,,,winner,wroner,WINNER,RL1,m,4732,2020-08-04_08h06.48.866,ColomboPrimingTaskD,2020.1.2,Win32,60,,,m,1,0.53458,0,129,129,76,1,,,,,,,,
,,,,,,,,,,,,child,chand,CHILD,RL2,m,4732,2020-08-04_08h06.48.866,ColomboPrimingTaskD,2020.1.2,Win32,60,,,m,1,0.520395,0,130,130,12,1,,,,,,,,
,,,,,,,,,,,,troasure,trosaure,TROASURE,TLNW,z,4732,2020-08-04_08h06.48.866,ColomboPrimingTaskD,2020.1.2,Win32,60,,,z,1,1.01188,0,131,131,146,1,,,,,,,,
,,,,,,,,,,,,dentist,dentort,DENTIST,RL2,m,4732,2020-08-04_08h06.48.866,ColomboPrimingTaskD,2020.1.2,Win32,60,,,m,1,0.444375,0,132,132,13,1,,,,,,,,
,,,,,,,,,,,,thirns,thrins,THIRNS,TLNW,z,4732,2020-08-04_08h06.48.866,ColomboPrimingTaskD,2020.1.2,Win32,60,,,z,1,0.482845,0,133,133,148,1,,,,,,,,
,,,,,,,,,,,,return,retrun,RETURN,TL2,m,4732,2020-08-04_08h06.48.866,ColomboPrimingTaskD,2020.1.2,Win32,60,,,m,1,0.41479,0,134,134,53,1,,,,,,,,
,,,,,,,,,,,,crunphy,clinphy,CRUNPHY,RLNW,z,4732,2020-08-04_08h06.48.866,ColomboPrimingTaskD,2020.1.2,Win32,60,,,z,1,0.560375,0,135,135,92,1,,,,,,,,
,,,,,,,,,,,,knorn,klarn,KNORN,RLNW,z,4732,2020-08-04_08h06.48.866,ColomboPrimingTaskD,2020.1.2,Win32,60,,,z,1,0.446455,0,136,136,109,1,,,,,,,,
,,,,,,,,,,,,potato,pottao,POTATO,TL2,m,4732,2020-08-04_08h06.48.866,ColomboPrimingTaskD,2020.1.2,Win32,60,,,m,1,0.45763,0,137,137,48,1,,,,,,,,
,,,,,,,,,,,,spear,swiar,SPEAR,RL1,m,4732,2020-08-04_08h06.48.866,ColomboPrimingTaskD,2020.1.2,Win32,60,,,m,1,0.50022,0,138,138,62,1,,,,,,,,
,,,,,,,,,,,,flazer,fruzer,FLAZER,RLNW,z,4732,2020-08-04_08h06.48.866,ColomboPrimingTaskD,2020.1.2,Win32,60,,,z,1,0.43316,0,139,139,102,1,,,,,,,,
,,,,,,,,,,,,basket,baslit,BASKET,RL2,m,4732,2020-08-04_08h06.48.866,ColomboPrimingTaskD,2020.1.2,Win32,60,,,m,1,0.528795,0,140,140,4,1,,,,,,,,
,,,,,,,,,,,,caterpiddar,catonpiddar,CATERPIDDAR,RLNW,z,4732,2020-08-04_08h06.48.866,ColomboPrimingTaskD,2020.1.2,Win32,60,,,z,1,0.688125,0,141,141,86,1,,,,,,,,
,,,,,,,,,,,,snake,sorke,SNAKE,RL1,m,4732,2020-08-04_08h06.48.866,ColomboPrimingTaskD,2020.1.2,Win32,60,,,m,1,0.42794,0,142,142,61,1,,,,,,,,
,,,,,,,,,,,,burning,burnarg,BURNING,RL2,m,4732,2020-08-04_08h06.48.866,ColomboPrimingTaskD,2020.1.2,Win32,60,,,m,1,0.417895,0,143,143,9,1,,,,,,,,
,,,,,,,,,,,,motter,mlater,MOTTER,RLNW,z,4732,2020-08-04_08h06.48.866,ColomboPrimingTaskD,2020.1.2,Win32,60,,,z,1,0.46487,0,144,144,115,1,,,,,,,,
,,,,,,,,,,,,vegetable,vifetable,VEGETABLE,RL1,m,4732,2020-08-04_08h06.48.866,ColomboPrimingTaskD,2020.1.2,Win32,60,,,m,1,0.466675,0,145,145,74,1,,,,,,,,
,,,,,,,,,,,,apting,azking,APTING,RLNW,z,4732,2020-08-04_08h06.48.866,ColomboPrimingTaskD,2020.1.2,Win32,60,,,z,1,1.033665,0,146,146,78,1,,,,,,,,
,,,,,,,,,,,,boach,beuch,BOACH,RLNW,z,4732,2020-08-04_08h06.48.866,ColomboPrimingTaskD,2020.1.2,Win32,60,,,z,1,0.55841,0,147,147,82,1,,,,,,,,
,,,,,,,,,,,,dufty,dulpy,DUFTY,RLNW,z,4732,2020-08-04_08h06.48.866,ColomboPrimingTaskD,2020.1.2,Win32,60,,,z,1,0.466585,0,148,148,97,1,,,,,,,,
,,,,,,,,,,,,talking,tirking,TALKING,RL1,m,4732,2020-08-04_08h06.48.866,ColomboPrimingTaskD,2020.1.2,Win32,60,,,m,1,0.55085,0,149,149,70,1,,,,,,,,
,,,,,,,,,,,,proffed,porffed,PROFFED,TLNW,z,4732,2020-08-04_08h06.48.866,ColomboPrimingTaskD,2020.1.2,Win32,60,,,z,1,0.491515,0,150,150,122,1,,,,,,,,
,,,,,,,,,,,,enezies,enefoes,ENEZIES,RLNW,z,4732,2020-08-04_08h06.48.866,ColomboPrimingTaskD,2020.1.2,Win32,60,,,z,1,0.49226,0,151,151,98,1,,,,,,,,
,,,,,,,,,,,,tourist,tawrist,TOURIST,RL1,m,4732,2020-08-04_08h06.48.866,ColomboPrimingTaskD,2020.1.2,Win32,60,,,m,1,0.459055,0,152,152,72,1,,,,,,,,
,,,,,,,,,,,,arvument,ansument,ARVUMENT,RLNW,z,4732,2020-08-04_08h06.48.866,ColomboPrimingTaskD,2020.1.2,Win32,60,,,z,1,0.4496,0,153,153,79,1,,,,,,,,
,,,,,,,,,,,,floats,flowks,FLOATS,RL2,m,4732,2020-08-04_08h06.48.866,ColomboPrimingTaskD,2020.1.2,Win32,60,,,m,1,0.413865,0,154,154,17,1,,,,,,,,
,,,,,,,,,,,,outside,outsdie,OUTSIDE,TL2,m,4732,2020-08-04_08h06.48.866,ColomboPrimingTaskD,2020.1.2,Win32,60,,,m,1,0.770805,0,155,155,39,1,,,,,,,,
,,,,,,,,,,,,,,,,,4732,2020-08-04_08h06.48.866,ColomboPrimingTaskD,2020.1.2,Win32,60,,,,,,,,,,,space,22.21317, afraid,space,8.862435, ease the tension when everyone,space,2.56868
