Space1.keys,Space1.rt,Space2.keys,Space2.rt,key_resp.keys,key_resp.corr,key_resp.rt,Practice_loop.thisRepN,Practice_loop.thisTrialN,Practice_loop.thisN,Practice_loop.thisIndex,Practice_loop.ran,Target1,Prime,Target2,Type,CorrAns,Participants I.D.,date,expName,psychopyVersion,OS,frameRate,Space3.keys,Space3.rt,key_resp_2.keys,key_resp_2.corr,key_resp_2.rt,trials.thisRepN,trials.thisTrialN,trials.thisN,trials.thisIndex,trials.ran,key_resp_3.keys,key_resp_3.rt,typedWord,key_resp_4.keys,key_resp_4.rt,typedWord2,key_resp_5.keys,key_resp_5.rt
space,0.68721,space,8.417035,z,1,1.26357,0,0,0,23,1,cnipper,crupper,CNIPPER,NWRL,z,7113,2020-08-03_01h25.33.980,ColomboPrimingTaskC,2020.1.2,MacIntel,60,,,,,,,,,,,,,,,,,,
,,,,m,1,2.25916,0,1,1,1,1,elderflower,elferdower,ELDERFLOWER,WTL,m,7113,2020-08-03_01h25.33.980,ColomboPrimingTaskC,2020.1.2,MacIntel,60,,,,,,,,,,,,,,,,,,
,,,,z,1,2.10241,0,2,2,17,1,flech,felch,FLECH,NWTL,z,7113,2020-08-03_01h25.33.980,ColomboPrimingTaskC,2020.1.2,MacIntel,60,,,,,,,,,,,,,,,,,,
,,,,m,1,0.96453,0,3,3,6,1,monopoly,mogomoly,MONOPOLY,WRL,m,7113,2020-08-03_01h25.33.980,ColomboPrimingTaskC,2020.1.2,MacIntel,60,,,,,,,,,,,,,,,,,,
,,,,m,1,1.523335,0,4,4,10,1,twitter,twitofr,TWITTER,WRL,m,7113,2020-08-03_01h25.33.980,ColomboPrimingTaskC,2020.1.2,MacIntel,60,,,,,,,,,,,,,,,,,,
,,,,z,1,1.51484,0,5,5,15,1,etephant,etpheant,ETEPHANT,NWTL,z,7113,2020-08-03_01h25.33.980,ColomboPrimingTaskC,2020.1.2,MacIntel,60,,,,,,,,,,,,,,,,,,
,,,,z,1,3.661905,0,6,6,19,1,bacoon,barkon,BACOON,NWRL,z,7113,2020-08-03_01h25.33.980,ColomboPrimingTaskC,2020.1.2,MacIntel,60,,,,,,,,,,,,,,,,,,
,,,,m,1,1.26497,0,7,7,11,1,violin,viprin,VIOLIN,WRL,m,7113,2020-08-03_01h25.33.980,ColomboPrimingTaskC,2020.1.2,MacIntel,60,,,,,,,,,,,,,,,,,,
,,,,m,1,1.170045,0,8,8,3,1,fifty,fitfy,FIFTY,WTL,m,7113,2020-08-03_01h25.33.980,ColomboPrimingTaskC,2020.1.2,MacIntel,60,,,,,,,,,,,,,,,,,,
,,,,z,1,1.09781,0,9,9,14,1,dinital,ditinal,DINITAL,NWTL,z,7113,2020-08-03_01h25.33.980,ColomboPrimingTaskC,2020.1.2,MacIntel,60,,,,,,,,,,,,,,,,,,
,,,,z,1,1.78306,0,10,10,21,1,campet,cantet,CAMPET,NWRL,z,7113,2020-08-03_01h25.33.980,ColomboPrimingTaskC,2020.1.2,MacIntel,60,,,,,,,,,,,,,,,,,,
,,,,z,1,1.28743,0,11,11,13,1,cobcert,cocbert,COBCERT,NWTL,z,7113,2020-08-03_01h25.33.980,ColomboPrimingTaskC,2020.1.2,MacIntel,60,,,,,,,,,,,,,,,,,,
,,,,m,1,1.7843,0,12,12,2,1,festival,fetsival,FESTIVAL,WTL,m,7113,2020-08-03_01h25.33.980,ColomboPrimingTaskC,2020.1.2,MacIntel,60,,,,,,,,,,,,,,,,,,
,,,,m,1,1.47038,0,13,13,5,1,library,lirbary,LIBRARY,WTL,m,7113,2020-08-03_01h25.33.980,ColomboPrimingTaskC,2020.1.2,MacIntel,60,,,,,,,,,,,,,,,,,,
,,,,z,1,1.123395,0,14,14,18,1,alacus,afogus,ALACUS,NWRL,z,7113,2020-08-03_01h25.33.980,ColomboPrimingTaskC,2020.1.2,MacIntel,60,,,,,,,,,,,,,,,,,,
,,,,z,1,1.499705,0,15,15,20,1,bubbfes,buddfes,BUBBFES,NWRL,z,7113,2020-08-03_01h25.33.980,ColomboPrimingTaskC,2020.1.2,MacIntel,60,,,,,,,,,,,,,,,,,,
,,,,m,1,2.0017,0,16,16,4,1,laundry,laudnry,LAUNDRY,WTL,m,7113,2020-08-03_01h25.33.980,ColomboPrimingTaskC,2020.1.2,MacIntel,60,,,,,,,,,,,,,,,,,,
,,,,z,1,0.866525,0,17,17,12,1,codfort,cofdort,CODFORT,NWTL,z,7113,2020-08-03_01h25.33.980,ColomboPrimingTaskC,2020.1.2,MacIntel,60,,,,,,,,,,,,,,,,,,
,,,,m,1,1.46888,0,18,18,8,1,picture,pimrure,PICTURE,WRL,m,7113,2020-08-03_01h25.33.980,ColomboPrimingTaskC,2020.1.2,MacIntel,60,,,,,,,,,,,,,,,,,,
,,,,z,1,1.418795,0,19,19,22,1,chfistmas,chrustmas,CHFISTMAS,NWRL,z,7113,2020-08-03_01h25.33.980,ColomboPrimingTaskC,2020.1.2,MacIntel,60,,,,,,,,,,,,,,,,,,
,,,,z,1,0.901495,0,20,20,16,1,clirate,crilate,CLIRATE,NWTL,z,7113,2020-08-03_01h25.33.980,ColomboPrimingTaskC,2020.1.2,MacIntel,60,,,,,,,,,,,,,,,,,,
,,,,m,1,1.04913,0,21,21,9,1,parcel,pafbel,PARCEL,WRL,m,7113,2020-08-03_01h25.33.980,ColomboPrimingTaskC,2020.1.2,MacIntel,60,,,,,,,,,,,,,,,,,,
,,,,z,0,2.155495,0,22,22,7,1,nursery,nuftery,NURSERY,WRL,m,7113,2020-08-03_01h25.33.980,ColomboPrimingTaskC,2020.1.2,MacIntel,60,,,,,,,,,,,,,,,,,,
,,,,m,1,0.731705,0,23,23,0,1,coral,croal,CORAL,WTL,m,7113,2020-08-03_01h25.33.980,ColomboPrimingTaskC,2020.1.2,MacIntel,60,,,,,,,,,,,,,,,,,,
,,,,,,,,,,,,child,crald,CHILD,RL1,m,7113,2020-08-03_01h25.33.980,ColomboPrimingTaskC,2020.1.2,MacIntel,60,space,2.613365,m,1,0.696965,0,0,0,12,1,,,,,,,,
,,,,,,,,,,,,dentist,durtist,DENTIST,RL1,m,7113,2020-08-03_01h25.33.980,ColomboPrimingTaskC,2020.1.2,MacIntel,60,,,m,1,0.902335,0,1,1,13,1,,,,,,,,
,,,,,,,,,,,,blanket,bronket,BLANKET,RL1,m,7113,2020-08-03_01h25.33.980,ColomboPrimingTaskC,2020.1.2,MacIntel,60,,,m,1,1.037805,0,2,2,8,1,,,,,,,,
,,,,,,,,,,,,lying,lyorg,LYING,RL2,m,7113,2020-08-03_01h25.33.980,ColomboPrimingTaskC,2020.1.2,MacIntel,60,,,m,1,0.71828,0,3,3,33,1,,,,,,,,
,,,,,,,,,,,,midute,midtue,MIDUTE,TLNW,z,7113,2020-08-03_01h25.33.980,ColomboPrimingTaskC,2020.1.2,MacIntel,60,,,z,1,0.898055,0,4,4,114,1,,,,,,,,
,,,,,,,,,,,,robber,rbober,ROBBER,TL1,m,7113,2020-08-03_01h25.33.980,ColomboPrimingTaskC,2020.1.2,MacIntel,60,,,m,1,3.08487,0,5,5,54,1,,,,,,,,
,,,,,,,,,,,,fulore,fluore,FULORE,TLNW,z,7113,2020-08-03_01h25.33.980,ColomboPrimingTaskC,2020.1.2,MacIntel,60,,,z,1,0.981505,0,6,6,103,1,,,,,,,,
,,,,,,,,,,,,sleeve,slevee,SLEEVE,TL2,m,7113,2020-08-03_01h25.33.980,ColomboPrimingTaskC,2020.1.2,MacIntel,60,,,m,1,0.69064,0,7,7,58,1,,,,,,,,
,,,,,,,,,,,,outside,otuside,OUTSIDE,TL1,m,7113,2020-08-03_01h25.33.980,ColomboPrimingTaskC,2020.1.2,MacIntel,60,,,m,1,0.92192,0,8,8,39,1,,,,,,,,
,,,,,,,,,,,,tronch,taunch,TRONCH,RLNW,z,7113,2020-08-03_01h25.33.980,ColomboPrimingTaskC,2020.1.2,MacIntel,60,,,z,1,0.789225,0,9,9,150,1,,,,,,,,
,,,,,,,,,,,,legend,legord,LEGEND,RL2,m,7113,2020-08-03_01h25.33.980,ColomboPrimingTaskC,2020.1.2,MacIntel,60,,,m,1,0.534185,0,10,10,31,1,,,,,,,,
,,,,,,,,,,,,stomach,stomcah,STOMACH,TL2,m,7113,2020-08-03_01h25.33.980,ColomboPrimingTaskC,2020.1.2,MacIntel,60,,,m,1,0.801905,0,11,11,65,1,,,,,,,,
,,,,,,,,,,,,taidor,tordor,TAIDOR,RLNW,z,7113,2020-08-03_01h25.33.980,ColomboPrimingTaskC,2020.1.2,MacIntel,60,,,z,1,0.871995,0,12,12,145,1,,,,,,,,
,,,,,,,,,,,,wardrobe,wardrboe,WARDROBE,TL2,m,7113,2020-08-03_01h25.33.980,ColomboPrimingTaskC,2020.1.2,MacIntel,60,,,m,1,1.352215,0,13,13,75,1,,,,,,,,
,,,,,,,,,,,,singer,sniger,SINGER,TL1,m,7113,2020-08-03_01h25.33.980,ColomboPrimingTaskC,2020.1.2,MacIntel,60,,,m,1,0.560525,0,14,14,57,1,,,,,,,,
,,,,,,,,,,,,niffling,nilffing,NIFFLING,TLNW,z,7113,2020-08-03_01h25.33.980,ColomboPrimingTaskC,2020.1.2,MacIntel,60,,,z,1,1.684855,0,15,15,116,1,,,,,,,,
,,,,,,,,,,,,apting,atping,APTING,TLNW,z,7113,2020-08-03_01h25.33.980,ColomboPrimingTaskC,2020.1.2,MacIntel,60,,,z,1,1.223345,0,16,16,78,1,,,,,,,,
,,,,,,,,,,,,rimble,rirkle,RIMBLE,RLNW,z,7113,2020-08-03_01h25.33.980,ColomboPrimingTaskC,2020.1.2,MacIntel,60,,,z,1,2.084815,0,17,17,127,1,,,,,,,,
,,,,,,,,,,,,foreign,foreasn,FOREIGN,RL2,m,7113,2020-08-03_01h25.33.980,ColomboPrimingTaskC,2020.1.2,MacIntel,60,,,m,1,0.729665,0,18,18,19,1,,,,,,,,
,,,,,,,,,,,,knorn,konrn,KNORN,TLNW,z,7113,2020-08-03_01h25.33.980,ColomboPrimingTaskC,2020.1.2,MacIntel,60,,,z,1,0.90606,0,19,19,109,1,,,,,,,,
,,,,,,,,,,,,heaven,heamon,HEAVEN,RL2,m,7113,2020-08-03_01h25.33.980,ColomboPrimingTaskC,2020.1.2,MacIntel,60,,,m,1,1.1167,0,20,20,23,1,,,,,,,,
,,,,,,,,,,,,plain,palin,PLAIN,TL1,m,7113,2020-08-03_01h25.33.980,ColomboPrimingTaskC,2020.1.2,MacIntel,60,,,m,1,0.71737,0,21,21,46,1,,,,,,,,
,,,,,,,,,,,,twotched,tartched,TWOTCHED,RLNW,z,7113,2020-08-03_01h25.33.980,ColomboPrimingTaskC,2020.1.2,MacIntel,60,,,z,1,0.819165,0,22,22,151,1,,,,,,,,
,,,,,,,,,,,,wutch,wursh,WUTCH,RLNW,z,7113,2020-08-03_01h25.33.980,ColomboPrimingTaskC,2020.1.2,MacIntel,60,,,z,1,0.86586,0,23,23,154,1,,,,,,,,
,,,,,,,,,,,,trapped,trapepd,TRAPPED,TL2,m,7113,2020-08-03_01h25.33.980,ColomboPrimingTaskC,2020.1.2,MacIntel,60,,,m,1,0.522305,0,24,24,73,1,,,,,,,,
,,,,,,,,,,,,gniching,ginching,GNICHING,TLNW,z,7113,2020-08-03_01h25.33.980,ColomboPrimingTaskC,2020.1.2,MacIntel,60,,,z,1,1.101415,0,25,25,104,1,,,,,,,,
,,,,,,,,,,,,wilked,winted,WILKED,RLNW,z,7113,2020-08-03_01h25.33.980,ColomboPrimingTaskC,2020.1.2,MacIntel,60,,,z,1,1.112925,0,26,26,152,1,,,,,,,,
,,,,,,,,,,,,skiffed,skiftad,SKIFFED,RLNW,z,7113,2020-08-03_01h25.33.980,ColomboPrimingTaskC,2020.1.2,MacIntel,60,,,z,1,1.869275,0,27,27,130,1,,,,,,,,
,,,,,,,,,,,,stoze,skaze,STOZE,RLNW,z,7113,2020-08-03_01h25.33.980,ColomboPrimingTaskC,2020.1.2,MacIntel,60,,,z,1,0.99779,0,28,28,141,1,,,,,,,,
,,,,,,,,,,,,stody,spady,STODY,RLNW,z,7113,2020-08-03_01h25.33.980,ColomboPrimingTaskC,2020.1.2,MacIntel,60,,,z,1,0.86241,0,29,29,142,1,,,,,,,,
,,,,,,,,,,,,snack,sncak,SNACK,TL2,m,7113,2020-08-03_01h25.33.980,ColomboPrimingTaskC,2020.1.2,MacIntel,60,,,m,1,1.03343,0,30,30,60,1,,,,,,,,
,,,,,,,,,,,,powerful,pwoerful,POWERFUL,TL1,m,7113,2020-08-03_01h25.33.980,ColomboPrimingTaskC,2020.1.2,MacIntel,60,,,m,1,1.36961,0,31,31,49,1,,,,,,,,
,,,,,,,,,,,,scratch,srcatch,SCRATCH,TL1,m,7113,2020-08-03_01h25.33.980,ColomboPrimingTaskC,2020.1.2,MacIntel,60,,,m,1,1.36694,0,32,32,56,1,,,,,,,,
,,,,,,,,,,,,swallow,swalolw,SWALLOW,TL2,m,7113,2020-08-03_01h25.33.980,ColomboPrimingTaskC,2020.1.2,MacIntel,60,,,m,1,0.68118,0,33,33,69,1,,,,,,,,
,,,,,,,,,,,,alphabet,anthabet,ALPHABET,RL1,m,7113,2020-08-03_01h25.33.980,ColomboPrimingTaskC,2020.1.2,MacIntel,60,,,m,1,1.53627,0,34,34,1,1,,,,,,,,
,,,,,,,,,,,,summer,sumemr,SUMMER,TL2,m,7113,2020-08-03_01h25.33.980,ColomboPrimingTaskC,2020.1.2,MacIntel,60,,,m,1,0.59944,0,35,35,67,1,,,,,,,,
,,,,,,,,,,,,chicken,clecken,CHICKEN,RL1,m,7113,2020-08-03_01h25.33.980,ColomboPrimingTaskC,2020.1.2,MacIntel,60,,,m,1,0.86974,0,36,36,11,1,,,,,,,,
,,,,,,,,,,,,spailt,sparft,SPAILT,RLNW,z,7113,2020-08-03_01h25.33.980,ColomboPrimingTaskC,2020.1.2,MacIntel,60,,,z,1,1.22169,0,37,37,133,1,,,,,,,,
,,,,,,,,,,,,birthday,banthday,BIRTHDAY,RL1,m,7113,2020-08-03_01h25.33.980,ColomboPrimingTaskC,2020.1.2,MacIntel,60,,,m,1,0.89178,0,38,38,6,1,,,,,,,,
,,,,,,,,,,,,boach,baoch,BOACH,TLNW,z,7113,2020-08-03_01h25.33.980,ColomboPrimingTaskC,2020.1.2,MacIntel,60,,,z,1,1.736235,0,39,39,82,1,,,,,,,,
,,,,,,,,,,,,stilks,stofks,STILKS,RLNW,z,7113,2020-08-03_01h25.33.980,ColomboPrimingTaskC,2020.1.2,MacIntel,60,,,z,1,0.814055,0,40,40,135,1,,,,,,,,
,,,,,,,,,,,,canivan,canvian,CANIVAN,TLNW,z,7113,2020-08-03_01h25.33.980,ColomboPrimingTaskC,2020.1.2,MacIntel,60,,,z,1,2.732025,0,41,41,84,1,,,,,,,,
,,,,,,,,,,,,snake,snkae,SNAKE,TL2,m,7113,2020-08-03_01h25.33.980,ColomboPrimingTaskC,2020.1.2,MacIntel,60,,,m,1,0.57183,0,42,42,61,1,,,,,,,,
,,,,,,,,,,,,rolief,rolalf,ROLIEF,RLNW,z,7113,2020-08-03_01h25.33.980,ColomboPrimingTaskC,2020.1.2,MacIntel,60,,,z,1,1.18331,0,43,43,125,1,,,,,,,,
,,,,,,,,,,,,swump,scomp,SWUMP,RLNW,z,7113,2020-08-03_01h25.33.980,ColomboPrimingTaskC,2020.1.2,MacIntel,60,,,z,1,0.721765,0,44,44,144,1,,,,,,,,
,,,,,,,,,,,,drink,dwonk,DRINK,RL1,m,7113,2020-08-03_01h25.33.980,ColomboPrimingTaskC,2020.1.2,MacIntel,60,,,m,1,0.62216,0,45,45,14,1,,,,,,,,
,,,,,,,,,,,,renorded,renaided,RENORDED,RLNW,z,7113,2020-08-03_01h25.33.980,ColomboPrimingTaskC,2020.1.2,MacIntel,60,,,z,1,1.10022,0,46,46,124,1,,,,,,,,
,,,,,,,,,,,,dored,droed,DORED,TLNW,z,7113,2020-08-03_01h25.33.980,ColomboPrimingTaskC,2020.1.2,MacIntel,60,,,z,1,1.09819,0,47,47,96,1,,,,,,,,
,,,,,,,,,,,,proffed,pauffed,PROFFED,RLNW,z,7113,2020-08-03_01h25.33.980,ColomboPrimingTaskC,2020.1.2,MacIntel,60,,,z,1,0.87714,0,48,48,122,1,,,,,,,,
,,,,,,,,,,,,arvument,avrument,ARVUMENT,TLNW,z,7113,2020-08-03_01h25.33.980,ColomboPrimingTaskC,2020.1.2,MacIntel,60,,,z,1,0.71483,0,49,49,79,1,,,,,,,,
,,,,,,,,,,,,environment,embironment,ENVIRONMENT,RL1,m,7113,2020-08-03_01h25.33.980,ColomboPrimingTaskC,2020.1.2,MacIntel,60,,,m,1,1.196575,0,50,50,16,1,,,,,,,,
,,,,,,,,,,,,loarnt,lorant,LOARNT,TLNW,z,7113,2020-08-03_01h25.33.980,ColomboPrimingTaskC,2020.1.2,MacIntel,60,,,z,1,0.701625,0,51,51,110,1,,,,,,,,
,,,,,,,,,,,,patient,ptaient,PATIENT,TL1,m,7113,2020-08-03_01h25.33.980,ColomboPrimingTaskC,2020.1.2,MacIntel,60,,,m,1,1.292085,0,52,52,41,1,,,,,,,,
,,,,,,,,,,,,yowned,yoazed,YOWNED,RLNW,z,7113,2020-08-03_01h25.33.980,ColomboPrimingTaskC,2020.1.2,MacIntel,60,,,m,0,1.09691,0,53,53,155,1,,,,,,,,
,,,,,,,,,,,,potato,ptoato,POTATO,TL1,m,7113,2020-08-03_01h25.33.980,ColomboPrimingTaskC,2020.1.2,MacIntel,60,,,m,1,3.72272,0,54,54,48,1,,,,,,,,
,,,,,,,,,,,,instant,instort,INSTANT,RL2,m,7113,2020-08-03_01h25.33.980,ColomboPrimingTaskC,2020.1.2,MacIntel,60,,,m,1,0.61731,0,55,55,29,1,,,,,,,,
,,,,,,,,,,,,scraff,stoaff,SCRAFF,RLNW,z,7113,2020-08-03_01h25.33.980,ColomboPrimingTaskC,2020.1.2,MacIntel,60,,,z,1,1.604045,0,56,56,128,1,,,,,,,,
,,,,,,,,,,,,return,rteurn,RETURN,TL1,m,7113,2020-08-03_01h25.33.980,ColomboPrimingTaskC,2020.1.2,MacIntel,60,,,m,1,1.294545,0,57,57,53,1,,,,,,,,
,,,,,,,,,,,,natural,natumel,NATURAL,RL2,m,7113,2020-08-03_01h25.33.980,ColomboPrimingTaskC,2020.1.2,MacIntel,60,,,m,1,0.70044,0,58,58,37,1,,,,,,,,
,,,,,,,,,,,,crockle,corckle,CROCKLE,TLNW,z,7113,2020-08-03_01h25.33.980,ColomboPrimingTaskC,2020.1.2,MacIntel,60,,,z,1,1.04501,0,59,59,89,1,,,,,,,,
,,,,,,,,,,,,lopely,lopley,LOPELY,TLNW,z,7113,2020-08-03_01h25.33.980,ColomboPrimingTaskC,2020.1.2,MacIntel,60,,,z,1,0.6534,0,60,60,111,1,,,,,,,,
,,,,,,,,,,,,woary,wonvy,WOARY,RLNW,z,7113,2020-08-03_01h25.33.980,ColomboPrimingTaskC,2020.1.2,MacIntel,60,,,z,1,0.617595,0,61,61,153,1,,,,,,,,
,,,,,,,,,,,,thought,thouhgt,THOUGHT,TL2,m,7113,2020-08-03_01h25.33.980,ColomboPrimingTaskC,2020.1.2,MacIntel,60,,,m,1,0.8903,0,62,62,71,1,,,,,,,,
,,,,,,,,,,,,curfomers,crufomers,CURFOMERS,TLNW,z,7113,2020-08-03_01h25.33.980,ColomboPrimingTaskC,2020.1.2,MacIntel,60,,,z,1,1.323285,0,63,63,93,1,,,,,,,,
,,,,,,,,,,,,entry,espry,ENTRY,RL1,m,7113,2020-08-03_01h25.33.980,ColomboPrimingTaskC,2020.1.2,MacIntel,60,,,m,1,0.66932,0,64,64,15,1,,,,,,,,
,,,,,,,,,,,,biscuit,borcuit,BISCUIT,RL1,m,7113,2020-08-03_01h25.33.980,ColomboPrimingTaskC,2020.1.2,MacIntel,60,,,m,1,1.047175,0,65,65,7,1,,,,,,,,
,,,,,,,,,,,,mirtioned,mitrioned,MIRTIONED,TLNW,z,7113,2020-08-03_01h25.33.980,ColomboPrimingTaskC,2020.1.2,MacIntel,60,,,z,1,0.819525,0,66,66,113,1,,,,,,,,
,,,,,,,,,,,,holiday,holitoy,HOLIDAY,RL2,m,7113,2020-08-03_01h25.33.980,ColomboPrimingTaskC,2020.1.2,MacIntel,60,,,m,1,0.72958,0,67,67,25,1,,,,,,,,
,,,,,,,,,,,,roinwater,raunwater,ROINWATER,RLNW,z,7113,2020-08-03_01h25.33.980,ColomboPrimingTaskC,2020.1.2,MacIntel,60,,,z,1,0.78692,0,68,68,123,1,,,,,,,,
,,,,,,,,,,,,match,mansh,MATCH,RL2,m,7113,2020-08-03_01h25.33.980,ColomboPrimingTaskC,2020.1.2,MacIntel,60,,,m,1,0.63151,0,69,69,35,1,,,,,,,,
,,,,,,,,,,,,smooth,smotoh,SMOOTH,TL2,m,7113,2020-08-03_01h25.33.980,ColomboPrimingTaskC,2020.1.2,MacIntel,60,,,m,1,0.609525,0,70,70,59,1,,,,,,,,
,,,,,,,,,,,,kitchen,kitckon,KITCHEN,RL2,m,7113,2020-08-03_01h25.33.980,ColomboPrimingTaskC,2020.1.2,MacIntel,60,,,m,1,0.587495,0,71,71,30,1,,,,,,,,
,,,,,,,,,,,,stimp,sturp,STIMP,RLNW,z,7113,2020-08-03_01h25.33.980,ColomboPrimingTaskC,2020.1.2,MacIntel,60,,,z,1,0.698375,0,72,72,137,1,,,,,,,,
,,,,,,,,,,,,skirping,skawping,SKIRPING,RLNW,z,7113,2020-08-03_01h25.33.980,ColomboPrimingTaskC,2020.1.2,MacIntel,60,,,z,1,1.549285,0,73,73,131,1,,,,,,,,
,,,,,,,,,,,,leopard,leopond,LEOPARD,RL2,m,7113,2020-08-03_01h25.33.980,ColomboPrimingTaskC,2020.1.2,MacIntel,60,,,m,1,4.218235,0,74,74,32,1,,,,,,,,
,,,,,,,,,,,,markles,marlkes,MARKLES,TLNW,z,7113,2020-08-03_01h25.33.980,ColomboPrimingTaskC,2020.1.2,MacIntel,60,,,m,0,1.01567,0,75,75,112,1,,,,,,,,
,,,,,,,,,,,,awful,amdul,AWFUL,RL1,m,7113,2020-08-03_01h25.33.980,ColomboPrimingTaskC,2020.1.2,MacIntel,60,,,m,1,0.65279,0,76,76,3,1,,,,,,,,
,,,,,,,,,,,,crishing,cirshing,CRISHING,TLNW,z,7113,2020-08-03_01h25.33.980,ColomboPrimingTaskC,2020.1.2,MacIntel,60,,,z,1,0.700685,0,77,77,90,1,,,,,,,,
,,,,,,,,,,,,basket,binket,BASKET,RL1,m,7113,2020-08-03_01h25.33.980,ColomboPrimingTaskC,2020.1.2,MacIntel,60,,,m,1,0.93751,0,78,78,4,1,,,,,,,,
,,,,,,,,,,,,believe,butieve,BELIEVE,RL1,m,7113,2020-08-03_01h25.33.980,ColomboPrimingTaskC,2020.1.2,MacIntel,60,,,m,1,1.04826,0,79,79,5,1,,,,,,,,
,,,,,,,,,,,,orchestra,orchesdna,ORCHESTRA,RL2,m,7113,2020-08-03_01h25.33.980,ColomboPrimingTaskC,2020.1.2,MacIntel,60,,,m,1,2.134475,0,80,80,38,1,,,,,,,,
,,,,,,,,,,,,winter,winetr,WINTER,TL2,m,7113,2020-08-03_01h25.33.980,ColomboPrimingTaskC,2020.1.2,MacIntel,60,,,m,1,0.54745,0,81,81,77,1,,,,,,,,
,,,,,,,,,,,,pevuliar,panuliar,PEVULIAR,RLNW,z,7113,2020-08-03_01h25.33.980,ColomboPrimingTaskC,2020.1.2,MacIntel,60,,,z,1,0.68135,0,82,82,119,1,,,,,,,,
,,,,,,,,,,,,sunset,sunest,SUNSET,TL2,m,7113,2020-08-03_01h25.33.980,ColomboPrimingTaskC,2020.1.2,MacIntel,60,,,m,1,1.0008,0,83,83,68,1,,,,,,,,
,,,,,,,,,,,,chupter,chutper,CHUPTER,TLNW,z,7113,2020-08-03_01h25.33.980,ColomboPrimingTaskC,2020.1.2,MacIntel,60,,,z,1,0.796655,0,84,84,87,1,,,,,,,,
,,,,,,,,,,,,sturfish,stonfish,STURFISH,RLNW,z,7113,2020-08-03_01h25.33.980,ColomboPrimingTaskC,2020.1.2,MacIntel,60,,,z,1,2.200175,0,85,85,139,1,,,,,,,,
,,,,,,,,,,,,spear,spaer,SPEAR,TL2,m,7113,2020-08-03_01h25.33.980,ColomboPrimingTaskC,2020.1.2,MacIntel,60,,,m,1,0.699425,0,86,86,62,1,,,,,,,,
,,,,,,,,,,,,spoff,swoff,SPOFF,RLNW,z,7113,2020-08-03_01h25.33.980,ColomboPrimingTaskC,2020.1.2,MacIntel,60,,,z,1,0.63063,0,87,87,143,1,,,,,,,,
,,,,,,,,,,,,heafs,hefas,HEAFS,TLNW,z,7113,2020-08-03_01h25.33.980,ColomboPrimingTaskC,2020.1.2,MacIntel,60,,,z,1,0.832745,0,88,88,106,1,,,,,,,,
,,,,,,,,,,,,senved,sevned,SENVED,TLNW,z,7113,2020-08-03_01h25.33.980,ColomboPrimingTaskC,2020.1.2,MacIntel,60,,,z,1,0.618065,0,89,89,101,1,,,,,,,,
,,,,,,,,,,,,flazer,falzer,FLAZER,TLNW,z,7113,2020-08-03_01h25.33.980,ColomboPrimingTaskC,2020.1.2,MacIntel,60,,,z,1,1.55513,0,90,90,102,1,,,,,,,,
,,,,,,,,,,,,enezies,eneizes,ENEZIES,TLNW,z,7113,2020-08-03_01h25.33.980,ColomboPrimingTaskC,2020.1.2,MacIntel,60,,,m,0,1.92494,0,91,91,98,1,,,,,,,,
,,,,,,,,,,,,crunphy,curnphy,CRUNPHY,TLNW,z,7113,2020-08-03_01h25.33.980,ColomboPrimingTaskC,2020.1.2,MacIntel,60,,,z,1,2.552825,0,92,92,92,1,,,,,,,,
,,,,,,,,,,,,sibble,sibode,SIBBLE,RLNW,z,7113,2020-08-03_01h25.33.980,ColomboPrimingTaskC,2020.1.2,MacIntel,60,,,z,1,0.69935,0,93,93,129,1,,,,,,,,
,,,,,,,,,,,,round,ruond,ROUND,TL1,m,7113,2020-08-03_01h25.33.980,ColomboPrimingTaskC,2020.1.2,MacIntel,60,,,m,1,0.68438,0,94,94,55,1,,,,,,,,
,,,,,,,,,,,,pench,putch,PENCH,RLNW,z,7113,2020-08-03_01h25.33.980,ColomboPrimingTaskC,2020.1.2,MacIntel,60,,,z,1,0.799325,0,95,95,118,1,,,,,,,,
,,,,,,,,,,,,bidger,bdiger,BIDGER,TLNW,z,7113,2020-08-03_01h25.33.980,ColomboPrimingTaskC,2020.1.2,MacIntel,60,,,z,1,1.304675,0,96,96,81,1,,,,,,,,
,,,,,,,,,,,,vegetable,vegetalbe,VEGETABLE,TL2,m,7113,2020-08-03_01h25.33.980,ColomboPrimingTaskC,2020.1.2,MacIntel,60,,,m,1,0.98513,0,97,97,74,1,,,,,,,,
,,,,,,,,,,,,thoatre,thoikre,THOATRE,RLNW,z,7113,2020-08-03_01h25.33.980,ColomboPrimingTaskC,2020.1.2,MacIntel,60,,,z,1,1.37115,0,98,98,147,1,,,,,,,,
,,,,,,,,,,,,privary,privony,PRIVARY,RLNW,z,7113,2020-08-03_01h25.33.980,ColomboPrimingTaskC,2020.1.2,MacIntel,60,,,z,1,1.732965,0,99,99,121,1,,,,,,,,
,,,,,,,,,,,,sporks,spilks,SPORKS,RLNW,z,7113,2020-08-03_01h25.33.980,ColomboPrimingTaskC,2020.1.2,MacIntel,60,,,z,1,0.770845,0,100,100,132,1,,,,,,,,
,,,,,,,,,,,,motter,mtoter,MOTTER,TLNW,z,7113,2020-08-03_01h25.33.980,ColomboPrimingTaskC,2020.1.2,MacIntel,60,,,z,1,0.813285,0,101,101,115,1,,,,,,,,
,,,,,,,,,,,,thirns,thowns,THIRNS,RLNW,z,7113,2020-08-03_01h25.33.980,ColomboPrimingTaskC,2020.1.2,MacIntel,60,,,z,1,0.722745,0,102,102,148,1,,,,,,,,
,,,,,,,,,,,,petrol,pterol,PETROL,TL1,m,7113,2020-08-03_01h25.33.980,ColomboPrimingTaskC,2020.1.2,MacIntel,60,,,m,1,1.05742,0,103,103,44,1,,,,,,,,
,,,,,,,,,,,,holmits,homlits,HOLMITS,TLNW,z,7113,2020-08-03_01h25.33.980,ColomboPrimingTaskC,2020.1.2,MacIntel,60,,,z,1,0.637225,0,104,104,108,1,,,,,,,,
,,,,,,,,,,,,tomay,tovoy,TOMAY,RLNW,z,7113,2020-08-03_01h25.33.980,ColomboPrimingTaskC,2020.1.2,MacIntel,60,,,z,1,0.68254,0,105,105,149,1,,,,,,,,
,,,,,,,,,,,,emter,etmer,EMTER,TLNW,z,7113,2020-08-03_01h25.33.980,ColomboPrimingTaskC,2020.1.2,MacIntel,60,,,z,1,0.62225,0,106,106,99,1,,,,,,,,
,,,,,,,,,,,,stipping,stipporg,STIPPING,RLNW,z,7113,2020-08-03_01h25.33.980,ColomboPrimingTaskC,2020.1.2,MacIntel,60,,,z,1,1.05072,0,107,107,140,1,,,,,,,,
,,,,,,,,,,,,referee,rfeeree,REFEREE,TL1,m,7113,2020-08-03_01h25.33.980,ColomboPrimingTaskC,2020.1.2,MacIntel,60,,,m,1,1.75131,0,108,108,52,1,,,,,,,,
,,,,,,,,,,,,stoff,skaff,STOFF,RLNW,z,7113,2020-08-03_01h25.33.980,ColomboPrimingTaskC,2020.1.2,MacIntel,60,,,z,1,0.553675,0,109,109,134,1,,,,,,,,
,,,,,,,,,,,,cammied,cammeid,CAMMIED,TLNW,z,7113,2020-08-03_01h25.33.980,ColomboPrimingTaskC,2020.1.2,MacIntel,60,,,z,1,0.66461,0,110,110,85,1,,,,,,,,
,,,,,,,,,,,,hoafe,hofae,HOAFE,TLNW,z,7113,2020-08-03_01h25.33.980,ColomboPrimingTaskC,2020.1.2,MacIntel,60,,,z,1,0.54845,0,111,111,107,1,,,,,,,,
,,,,,,,,,,,,almond,adrond,ALMOND,RL1,m,7113,2020-08-03_01h25.33.980,ColomboPrimingTaskC,2020.1.2,MacIntel,60,,,m,1,0.590655,0,112,112,0,1,,,,,,,,
,,,,,,,,,,,,tourist,toursit,TOURIST,TL2,m,7113,2020-08-03_01h25.33.980,ColomboPrimingTaskC,2020.1.2,MacIntel,60,,,m,1,0.766,0,113,113,72,1,,,,,,,,
,,,,,,,,,,,,winner,winenr,WINNER,TL2,m,7113,2020-08-03_01h25.33.980,ColomboPrimingTaskC,2020.1.2,MacIntel,60,,,m,1,0.770195,0,114,114,76,1,,,,,,,,
,,,,,,,,,,,,ghost,ghurt,GHOST,RL2,m,7113,2020-08-03_01h25.33.980,ColomboPrimingTaskC,2020.1.2,MacIntel,60,,,m,1,0.402375,0,115,115,22,1,,,,,,,,
,,,,,,,,,,,,story,stroy,STORY,TL2,m,7113,2020-08-03_01h25.33.980,ColomboPrimingTaskC,2020.1.2,MacIntel,60,,,m,1,0.62184,0,116,116,66,1,,,,,,,,
,,,,,,,,,,,,following,farlowing,FOLLOWING,RL1,m,7113,2020-08-03_01h25.33.980,ColomboPrimingTaskC,2020.1.2,MacIntel,60,,,m,1,0.823195,0,117,117,18,1,,,,,,,,
,,,,,,,,,,,,floats,freats,FLOATS,RL1,m,7113,2020-08-03_01h25.33.980,ColomboPrimingTaskC,2020.1.2,MacIntel,60,,,m,1,0.765315,0,118,118,17,1,,,,,,,,
,,,,,,,,,,,,troasure,tronture,TROASURE,RLNW,z,7113,2020-08-03_01h25.33.980,ColomboPrimingTaskC,2020.1.2,MacIntel,60,,,z,1,0.792805,0,119,119,146,1,,,,,,,,
,,,,,,,,,,,,stull,storl,STULL,RLNW,z,7113,2020-08-03_01h25.33.980,ColomboPrimingTaskC,2020.1.2,MacIntel,60,,,z,1,0.615505,0,120,120,136,1,,,,,,,,
,,,,,,,,,,,,meanwhile,meanwhote,MEANWHILE,RL2,m,7113,2020-08-03_01h25.33.980,ColomboPrimingTaskC,2020.1.2,MacIntel,60,,,m,1,1.501265,0,121,121,36,1,,,,,,,,
,,,,,,,,,,,,hospital,hospidol,HOSPITAL,RL2,m,7113,2020-08-03_01h25.33.980,ColomboPrimingTaskC,2020.1.2,MacIntel,60,,,m,1,0.849155,0,122,122,26,1,,,,,,,,
,,,,,,,,,,,,pavement,pvaement,PAVEMENT,TL1,m,7113,2020-08-03_01h25.33.980,ColomboPrimingTaskC,2020.1.2,MacIntel,60,,,m,1,0.71661,0,123,123,42,1,,,,,,,,
,,,,,,,,,,,,statue,staute,STATUE,TL2,m,7113,2020-08-03_01h25.33.980,ColomboPrimingTaskC,2020.1.2,MacIntel,60,,,m,1,0.547235,0,124,124,64,1,,,,,,,,
,,,,,,,,,,,,hibernate,hibernole,HIBERNATE,RL2,m,7113,2020-08-03_01h25.33.980,ColomboPrimingTaskC,2020.1.2,MacIntel,60,,,z,0,2.33504,0,125,125,24,1,,,,,,,,
,,,,,,,,,,,,clavely,calvely,CLAVELY,TLNW,z,7113,2020-08-03_01h25.33.980,ColomboPrimingTaskC,2020.1.2,MacIntel,60,,,z,1,0.75638,0,126,126,88,1,,,,,,,,
,,,,,,,,,,,,penguin,pneguin,PENGUIN,TL1,m,7113,2020-08-03_01h25.33.980,ColomboPrimingTaskC,2020.1.2,MacIntel,60,,,m,1,1.11804,0,127,127,43,1,,,,,,,,
,,,,,,,,,,,,pigeon,pgieon,PIGEON,TL1,m,7113,2020-08-03_01h25.33.980,ColomboPrimingTaskC,2020.1.2,MacIntel,60,,,m,1,0.754615,0,128,128,45,1,,,,,,,,
,,,,,,,,,,,,talking,talknig,TALKING,TL2,m,7113,2020-08-03_01h25.33.980,ColomboPrimingTaskC,2020.1.2,MacIntel,60,,,m,1,0.51349,0,129,129,70,1,,,,,,,,
,,,,,,,,,,,,dufty,dutfy,DUFTY,TLNW,z,7113,2020-08-03_01h25.33.980,ColomboPrimingTaskC,2020.1.2,MacIntel,60,,,z,1,0.854635,0,130,130,97,1,,,,,,,,
,,,,,,,,,,,,around,avaund,AROUND,RL1,m,7113,2020-08-03_01h25.33.980,ColomboPrimingTaskC,2020.1.2,MacIntel,60,,,m,1,0.76904,0,131,131,2,1,,,,,,,,
,,,,,,,,,,,,market,mardot,MARKET,RL2,m,7113,2020-08-03_01h25.33.980,ColomboPrimingTaskC,2020.1.2,MacIntel,60,,,m,1,0.50085,0,132,132,34,1,,,,,,,,
,,,,,,,,,,,,caterpiddar,catrepiddar,CATERPIDDAR,TLNW,z,7113,2020-08-03_01h25.33.980,ColomboPrimingTaskC,2020.1.2,MacIntel,60,,,z,1,1.550715,0,133,133,86,1,,,,,,,,
,,,,,,,,,,,,prince,pirnce,PRINCE,TL1,m,7113,2020-08-03_01h25.33.980,ColomboPrimingTaskC,2020.1.2,MacIntel,60,,,m,1,0.565005,0,134,134,50,1,,,,,,,,
,,,,,,,,,,,,onerall,onuvall,ONERALL,RLNW,z,7113,2020-08-03_01h25.33.980,ColomboPrimingTaskC,2020.1.2,MacIntel,60,,,z,1,0.73257,0,135,135,117,1,,,,,,,,
,,,,,,,,,,,,forest,forict,FOREST,RL2,m,7113,2020-08-03_01h25.33.980,ColomboPrimingTaskC,2020.1.2,MacIntel,60,,,m,1,1.015575,0,136,136,20,1,,,,,,,,
,,,,,,,,,,,,dimotaurs,diomtaurs,DIMOTAURS,TLNW,z,7113,2020-08-03_01h25.33.980,ColomboPrimingTaskC,2020.1.2,MacIntel,60,,,z,1,2.0835,0,137,137,94,1,,,,,,,,
,,,,,,,,,,,,hotel,hopal,HOTEL,RL2,m,7113,2020-08-03_01h25.33.980,ColomboPrimingTaskC,2020.1.2,MacIntel,60,,,m,1,0.65438,0,138,138,27,1,,,,,,,,
,,,,,,,,,,,,grufes,gurfes,GRUFES,TLNW,z,7113,2020-08-03_01h25.33.980,ColomboPrimingTaskC,2020.1.2,MacIntel,60,,,z,1,0.937425,0,139,139,105,1,,,,,,,,
,,,,,,,,,,,,burning,bozning,BURNING,RL1,m,7113,2020-08-03_01h25.33.980,ColomboPrimingTaskC,2020.1.2,MacIntel,60,,,m,1,0.86461,0,140,140,9,1,,,,,,,,
,,,,,,,,,,,,esferiment,efseriment,ESFERIMENT,TLNW,z,7113,2020-08-03_01h25.33.980,ColomboPrimingTaskC,2020.1.2,MacIntel,60,,,z,1,1.151345,0,141,141,100,1,,,,,,,,
,,,,,,,,,,,,callage,callgae,CALLAGE,TLNW,z,7113,2020-08-03_01h25.33.980,ColomboPrimingTaskC,2020.1.2,MacIntel,60,,,z,1,0.78324,0,142,142,83,1,,,,,,,,
,,,,,,,,,,,,standust,stalkust,STANDUST,RLNW,z,7113,2020-08-03_01h25.33.980,ColomboPrimingTaskC,2020.1.2,MacIntel,60,,,z,1,0.864845,0,143,143,138,1,,,,,,,,
,,,,,,,,,,,,rolin,rofan,ROLIN,RLNW,z,7113,2020-08-03_01h25.33.980,ColomboPrimingTaskC,2020.1.2,MacIntel,60,,,z,1,0.855355,0,144,144,126,1,,,,,,,,
,,,,,,,,,,,,asbrunaut,absrunaut,ASBRUNAUT,TLNW,z,7113,2020-08-03_01h25.33.980,ColomboPrimingTaskC,2020.1.2,MacIntel,60,,,z,1,1.126155,0,145,145,80,1,,,,,,,,
,,,,,,,,,,,,difentions,difnetions,DIFENTIONS,TLNW,z,7113,2020-08-03_01h25.33.980,ColomboPrimingTaskC,2020.1.2,MacIntel,60,,,z,1,1.39933,0,146,146,95,1,,,,,,,,
,,,,,,,,,,,,print,pirnt,PRINT,TL1,m,7113,2020-08-03_01h25.33.980,ColomboPrimingTaskC,2020.1.2,MacIntel,60,,,m,1,0.570175,0,147,147,51,1,,,,,,,,
,,,,,,,,,,,,plastic,palstic,PLASTIC,TL1,m,7113,2020-08-03_01h25.33.980,ColomboPrimingTaskC,2020.1.2,MacIntel,60,,,m,1,0.5889,0,148,148,47,1,,,,,,,,
,,,,,,,,,,,,crims,cirms,CRIMS,TLNW,z,7113,2020-08-03_01h25.33.980,ColomboPrimingTaskC,2020.1.2,MacIntel,60,,,z,1,0.72998,0,149,149,91,1,,,,,,,,
,,,,,,,,,,,,influence,influorce,INFLUENCE,RL2,m,7113,2020-08-03_01h25.33.980,ColomboPrimingTaskC,2020.1.2,MacIntel,60,,,m,1,0.8337,0,150,150,28,1,,,,,,,,
,,,,,,,,,,,,forty,fosky,FORTY,RL2,m,7113,2020-08-03_01h25.33.980,ColomboPrimingTaskC,2020.1.2,MacIntel,60,,,m,1,0.98089,0,151,151,21,1,,,,,,,,
,,,,,,,,,,,,panther,pnather,PANTHER,TL1,m,7113,2020-08-03_01h25.33.980,ColomboPrimingTaskC,2020.1.2,MacIntel,60,,,m,1,1.08796,0,152,152,40,1,,,,,,,,
,,,,,,,,,,,,playnime,plarmime,PLAYNIME,RLNW,z,7113,2020-08-03_01h25.33.980,ColomboPrimingTaskC,2020.1.2,MacIntel,60,,,z,1,0.94876,0,153,153,120,1,,,,,,,,
,,,,,,,,,,,,button,bizton,BUTTON,RL1,m,7113,2020-08-03_01h25.33.980,ColomboPrimingTaskC,2020.1.2,MacIntel,60,,,m,1,2.13991,0,154,154,10,1,,,,,,,,
,,,,,,,,,,,,spirit,spiirt,SPIRIT,TL2,m,7113,2020-08-03_01h25.33.980,ColomboPrimingTaskC,2020.1.2,MacIntel,60,,,m,1,0.737315,0,155,155,63,1,,,,,,,,
,,,,,,,,,,,,,,,,,7113,2020-08-03_01h25.33.980,ColomboPrimingTaskC,2020.1.2,MacIntel,60,,,,,,,,,,,space,12.32685,aircraft,space,15.100135,  dimmer,return,1.80249
