Space1.keys,Space1.rt,Space2.keys,Space2.rt,key_resp.keys,key_resp.corr,key_resp.rt,Practice_loop.thisRepN,Practice_loop.thisTrialN,Practice_loop.thisN,Practice_loop.thisIndex,Practice_loop.ran,Target1,Prime,Target2,Type,CorrAns,Participants I.D.,date,expName,psychopyVersion,OS,frameRate,Space3.keys,Space3.rt,key_resp_2.keys,key_resp_2.corr,key_resp_2.rt,trials.thisRepN,trials.thisTrialN,trials.thisN,trials.thisIndex,trials.ran,key_resp_3.keys,key_resp_3.rt,typedWord,key_resp_4.keys,key_resp_4.rt,typedWord2,key_resp_5.keys,key_resp_5.rt
space,1.14172,space,8.001815,m,1,1.033255,0,0,0,2,1,festival,fetsival,FESTIVAL,WTL,m,7302,2020-10-17_14h20.42.643,ColomboPrimingTaskC,2020.1.2,MacIntel,60,,,,,,,,,,,,,,,,,,
,,,,z,1,0.966805,0,1,1,21,1,campet,cantet,CAMPET,NWRL,z,7302,2020-10-17_14h20.42.643,ColomboPrimingTaskC,2020.1.2,MacIntel,60,,,,,,,,,,,,,,,,,,
,,,,m,1,0.731635,0,2,2,11,1,violin,viprin,VIOLIN,WRL,m,7302,2020-10-17_14h20.42.643,ColomboPrimingTaskC,2020.1.2,MacIntel,60,,,,,,,,,,,,,,,,,,
,,,,m,1,0.682305,0,3,3,8,1,picture,pimrure,PICTURE,WRL,m,7302,2020-10-17_14h20.42.643,ColomboPrimingTaskC,2020.1.2,MacIntel,60,,,,,,,,,,,,,,,,,,
,,,,z,1,0.69946,0,4,4,20,1,bubbfes,buddfes,BUBBFES,NWRL,z,7302,2020-10-17_14h20.42.643,ColomboPrimingTaskC,2020.1.2,MacIntel,60,,,,,,,,,,,,,,,,,,
,,,,m,1,0.566855,0,5,5,0,1,coral,croal,CORAL,WTL,m,7302,2020-10-17_14h20.42.643,ColomboPrimingTaskC,2020.1.2,MacIntel,60,,,,,,,,,,,,,,,,,,
,,,,z,1,0.65052,0,6,6,19,1,bacoon,barkon,BACOON,NWRL,z,7302,2020-10-17_14h20.42.643,ColomboPrimingTaskC,2020.1.2,MacIntel,60,,,,,,,,,,,,,,,,,,
,,,,z,1,0.76616,0,7,7,12,1,codfort,cofdort,CODFORT,NWTL,z,7302,2020-10-17_14h20.42.643,ColomboPrimingTaskC,2020.1.2,MacIntel,60,,,,,,,,,,,,,,,,,,
,,,,z,1,0.733895,0,8,8,13,1,cobcert,cocbert,COBCERT,NWTL,z,7302,2020-10-17_14h20.42.643,ColomboPrimingTaskC,2020.1.2,MacIntel,60,,,,,,,,,,,,,,,,,,
,,,,m,1,0.599285,0,9,9,3,1,fifty,fitfy,FIFTY,WTL,m,7302,2020-10-17_14h20.42.643,ColomboPrimingTaskC,2020.1.2,MacIntel,60,,,,,,,,,,,,,,,,,,
,,,,m,1,0.651815,0,10,10,7,1,nursery,nuftery,NURSERY,WRL,m,7302,2020-10-17_14h20.42.643,ColomboPrimingTaskC,2020.1.2,MacIntel,60,,,,,,,,,,,,,,,,,,
,,,,z,1,0.534125,0,11,11,23,1,cnipper,crupper,CNIPPER,NWRL,z,7302,2020-10-17_14h20.42.643,ColomboPrimingTaskC,2020.1.2,MacIntel,60,,,,,,,,,,,,,,,,,,
,,,,m,1,0.531,0,12,12,10,1,twitter,twitofr,TWITTER,WRL,m,7302,2020-10-17_14h20.42.643,ColomboPrimingTaskC,2020.1.2,MacIntel,60,,,,,,,,,,,,,,,,,,
,,,,m,1,0.44962,0,13,13,5,1,library,lirbary,LIBRARY,WTL,m,7302,2020-10-17_14h20.42.643,ColomboPrimingTaskC,2020.1.2,MacIntel,60,,,,,,,,,,,,,,,,,,
,,,,z,1,0.66667,0,14,14,22,1,chfistmas,chrustmas,CHFISTMAS,NWRL,z,7302,2020-10-17_14h20.42.643,ColomboPrimingTaskC,2020.1.2,MacIntel,60,,,,,,,,,,,,,,,,,,
,,,,z,1,0.86553,0,15,15,15,1,etephant,etpheant,ETEPHANT,NWTL,z,7302,2020-10-17_14h20.42.643,ColomboPrimingTaskC,2020.1.2,MacIntel,60,,,,,,,,,,,,,,,,,,
,,,,m,1,0.716995,0,16,16,1,1,elderflower,elferdower,ELDERFLOWER,WTL,m,7302,2020-10-17_14h20.42.643,ColomboPrimingTaskC,2020.1.2,MacIntel,60,,,,,,,,,,,,,,,,,,
,,,,z,1,0.700225,0,17,17,14,1,dinital,ditinal,DINITAL,NWTL,z,7302,2020-10-17_14h20.42.643,ColomboPrimingTaskC,2020.1.2,MacIntel,60,,,,,,,,,,,,,,,,,,
,,,,m,1,0.50007,0,18,18,4,1,laundry,laudnry,LAUNDRY,WTL,m,7302,2020-10-17_14h20.42.643,ColomboPrimingTaskC,2020.1.2,MacIntel,60,,,,,,,,,,,,,,,,,,
,,,,m,1,1.185165,0,19,19,9,1,parcel,pafbel,PARCEL,WRL,m,7302,2020-10-17_14h20.42.643,ColomboPrimingTaskC,2020.1.2,MacIntel,60,,,,,,,,,,,,,,,,,,
,,,,z,1,0.83313,0,20,20,18,1,alacus,afogus,ALACUS,NWRL,z,7302,2020-10-17_14h20.42.643,ColomboPrimingTaskC,2020.1.2,MacIntel,60,,,,,,,,,,,,,,,,,,
,,,,z,1,0.718265,0,21,21,17,1,flech,felch,FLECH,NWTL,z,7302,2020-10-17_14h20.42.643,ColomboPrimingTaskC,2020.1.2,MacIntel,60,,,,,,,,,,,,,,,,,,
,,,,z,1,2.133405,0,22,22,16,1,clirate,crilate,CLIRATE,NWTL,z,7302,2020-10-17_14h20.42.643,ColomboPrimingTaskC,2020.1.2,MacIntel,60,,,,,,,,,,,,,,,,,,
,,,,m,1,0.6867,0,23,23,6,1,monopoly,mogomoly,MONOPOLY,WRL,m,7302,2020-10-17_14h20.42.643,ColomboPrimingTaskC,2020.1.2,MacIntel,60,,,,,,,,,,,,,,,,,,
,,,,,,,,,,,,swallow,swalolw,SWALLOW,TL2,m,7302,2020-10-17_14h20.42.643,ColomboPrimingTaskC,2020.1.2,MacIntel,60,space,2.8123,m,1,0.56716,0,0,0,69,1,,,,,,,,
,,,,,,,,,,,,stull,storl,STULL,RLNW,z,7302,2020-10-17_14h20.42.643,ColomboPrimingTaskC,2020.1.2,MacIntel,60,,,z,1,0.951135,0,1,1,136,1,,,,,,,,
,,,,,,,,,,,,tourist,toursit,TOURIST,TL2,m,7302,2020-10-17_14h20.42.643,ColomboPrimingTaskC,2020.1.2,MacIntel,60,,,m,1,0.6491,0,2,2,72,1,,,,,,,,
,,,,,,,,,,,,wilked,winted,WILKED,RLNW,z,7302,2020-10-17_14h20.42.643,ColomboPrimingTaskC,2020.1.2,MacIntel,60,,,z,1,0.6652,0,3,3,152,1,,,,,,,,
,,,,,,,,,,,,stilks,stofks,STILKS,RLNW,z,7302,2020-10-17_14h20.42.643,ColomboPrimingTaskC,2020.1.2,MacIntel,60,,,z,1,0.783575,0,4,4,135,1,,,,,,,,
,,,,,,,,,,,,awful,amdul,AWFUL,RL1,m,7302,2020-10-17_14h20.42.643,ColomboPrimingTaskC,2020.1.2,MacIntel,60,,,m,1,0.65014,0,5,5,3,1,,,,,,,,
,,,,,,,,,,,,niffling,nilffing,NIFFLING,TLNW,z,7302,2020-10-17_14h20.42.643,ColomboPrimingTaskC,2020.1.2,MacIntel,60,,,z,1,0.998505,0,6,6,116,1,,,,,,,,
,,,,,,,,,,,,dimotaurs,diomtaurs,DIMOTAURS,TLNW,z,7302,2020-10-17_14h20.42.643,ColomboPrimingTaskC,2020.1.2,MacIntel,60,,,z,1,0.749955,0,7,7,94,1,,,,,,,,
,,,,,,,,,,,,onerall,onuvall,ONERALL,RLNW,z,7302,2020-10-17_14h20.42.643,ColomboPrimingTaskC,2020.1.2,MacIntel,60,,,z,1,1.150035,0,8,8,117,1,,,,,,,,
,,,,,,,,,,,,around,avaund,AROUND,RL1,m,7302,2020-10-17_14h20.42.643,ColomboPrimingTaskC,2020.1.2,MacIntel,60,,,m,1,0.783275,0,9,9,2,1,,,,,,,,
,,,,,,,,,,,,rolief,rolalf,ROLIEF,RLNW,z,7302,2020-10-17_14h20.42.643,ColomboPrimingTaskC,2020.1.2,MacIntel,60,,,z,1,0.61528,0,10,10,125,1,,,,,,,,
,,,,,,,,,,,,sleeve,slevee,SLEEVE,TL2,m,7302,2020-10-17_14h20.42.643,ColomboPrimingTaskC,2020.1.2,MacIntel,60,,,m,1,0.60124,0,11,11,58,1,,,,,,,,
,,,,,,,,,,,,knorn,konrn,KNORN,TLNW,z,7302,2020-10-17_14h20.42.643,ColomboPrimingTaskC,2020.1.2,MacIntel,60,,,z,1,0.633445,0,12,12,109,1,,,,,,,,
,,,,,,,,,,,,entry,espry,ENTRY,RL1,m,7302,2020-10-17_14h20.42.643,ColomboPrimingTaskC,2020.1.2,MacIntel,60,,,m,1,0.782965,0,13,13,15,1,,,,,,,,
,,,,,,,,,,,,penguin,pneguin,PENGUIN,TL1,m,7302,2020-10-17_14h20.42.643,ColomboPrimingTaskC,2020.1.2,MacIntel,60,,,m,1,0.850365,0,14,14,43,1,,,,,,,,
,,,,,,,,,,,,chupter,chutper,CHUPTER,TLNW,z,7302,2020-10-17_14h20.42.643,ColomboPrimingTaskC,2020.1.2,MacIntel,60,,,z,1,1.149975,0,15,15,87,1,,,,,,,,
,,,,,,,,,,,,drink,dwonk,DRINK,RL1,m,7302,2020-10-17_14h20.42.643,ColomboPrimingTaskC,2020.1.2,MacIntel,60,,,m,1,0.783255,0,16,16,14,1,,,,,,,,
,,,,,,,,,,,,wutch,wursh,WUTCH,RLNW,z,7302,2020-10-17_14h20.42.643,ColomboPrimingTaskC,2020.1.2,MacIntel,60,,,z,1,0.90031,0,17,17,154,1,,,,,,,,
,,,,,,,,,,,,thoatre,thoikre,THOATRE,RLNW,z,7302,2020-10-17_14h20.42.643,ColomboPrimingTaskC,2020.1.2,MacIntel,60,,,z,1,1.26692,0,18,18,147,1,,,,,,,,
,,,,,,,,,,,,yowned,yoazed,YOWNED,RLNW,z,7302,2020-10-17_14h20.42.643,ColomboPrimingTaskC,2020.1.2,MacIntel,60,,,z,1,0.700015,0,19,19,155,1,,,,,,,,
,,,,,,,,,,,,following,farlowing,FOLLOWING,RL1,m,7302,2020-10-17_14h20.42.643,ColomboPrimingTaskC,2020.1.2,MacIntel,60,,,m,1,0.53313,0,20,20,18,1,,,,,,,,
,,,,,,,,,,,,holiday,holitoy,HOLIDAY,RL2,m,7302,2020-10-17_14h20.42.643,ColomboPrimingTaskC,2020.1.2,MacIntel,60,,,m,1,0.684345,0,21,21,25,1,,,,,,,,
,,,,,,,,,,,,tomay,tovoy,TOMAY,RLNW,z,7302,2020-10-17_14h20.42.643,ColomboPrimingTaskC,2020.1.2,MacIntel,60,,,z,1,0.46561,0,22,22,149,1,,,,,,,,
,,,,,,,,,,,,gniching,ginching,GNICHING,TLNW,z,7302,2020-10-17_14h20.42.643,ColomboPrimingTaskC,2020.1.2,MacIntel,60,,,z,1,0.58265,0,23,23,104,1,,,,,,,,
,,,,,,,,,,,,birthday,banthday,BIRTHDAY,RL1,m,7302,2020-10-17_14h20.42.643,ColomboPrimingTaskC,2020.1.2,MacIntel,60,,,m,1,0.46729,0,24,24,6,1,,,,,,,,
,,,,,,,,,,,,rimble,rirkle,RIMBLE,RLNW,z,7302,2020-10-17_14h20.42.643,ColomboPrimingTaskC,2020.1.2,MacIntel,60,,,z,1,0.816215,0,25,25,127,1,,,,,,,,
,,,,,,,,,,,,fulore,fluore,FULORE,TLNW,z,7302,2020-10-17_14h20.42.643,ColomboPrimingTaskC,2020.1.2,MacIntel,60,,,z,1,0.55089,0,26,26,103,1,,,,,,,,
,,,,,,,,,,,,emter,etmer,EMTER,TLNW,z,7302,2020-10-17_14h20.42.643,ColomboPrimingTaskC,2020.1.2,MacIntel,60,,,z,1,0.682475,0,27,27,99,1,,,,,,,,
,,,,,,,,,,,,bidger,bdiger,BIDGER,TLNW,z,7302,2020-10-17_14h20.42.643,ColomboPrimingTaskC,2020.1.2,MacIntel,60,,,z,1,0.6161,0,28,28,81,1,,,,,,,,
,,,,,,,,,,,,blanket,bronket,BLANKET,RL1,m,7302,2020-10-17_14h20.42.643,ColomboPrimingTaskC,2020.1.2,MacIntel,60,,,m,1,0.48305,0,29,29,8,1,,,,,,,,
,,,,,,,,,,,,winter,winetr,WINTER,TL2,m,7302,2020-10-17_14h20.42.643,ColomboPrimingTaskC,2020.1.2,MacIntel,60,,,m,1,0.433555,0,30,30,77,1,,,,,,,,
,,,,,,,,,,,,statue,staute,STATUE,TL2,m,7302,2020-10-17_14h20.42.643,ColomboPrimingTaskC,2020.1.2,MacIntel,60,,,m,1,0.69882,0,31,31,64,1,,,,,,,,
,,,,,,,,,,,,crunphy,curnphy,CRUNPHY,TLNW,z,7302,2020-10-17_14h20.42.643,ColomboPrimingTaskC,2020.1.2,MacIntel,60,,,z,1,0.565395,0,32,32,92,1,,,,,,,,
,,,,,,,,,,,,market,mardot,MARKET,RL2,m,7302,2020-10-17_14h20.42.643,ColomboPrimingTaskC,2020.1.2,MacIntel,60,,,m,1,0.549195,0,33,33,34,1,,,,,,,,
,,,,,,,,,,,,esferiment,efseriment,ESFERIMENT,TLNW,z,7302,2020-10-17_14h20.42.643,ColomboPrimingTaskC,2020.1.2,MacIntel,60,,,z,1,0.71757,0,34,34,100,1,,,,,,,,
,,,,,,,,,,,,chicken,clecken,CHICKEN,RL1,m,7302,2020-10-17_14h20.42.643,ColomboPrimingTaskC,2020.1.2,MacIntel,60,,,m,1,0.449105,0,35,35,11,1,,,,,,,,
,,,,,,,,,,,,believe,butieve,BELIEVE,RL1,m,7302,2020-10-17_14h20.42.643,ColomboPrimingTaskC,2020.1.2,MacIntel,60,,,m,1,0.515825,0,36,36,5,1,,,,,,,,
,,,,,,,,,,,,heaven,heamon,HEAVEN,RL2,m,7302,2020-10-17_14h20.42.643,ColomboPrimingTaskC,2020.1.2,MacIntel,60,,,m,1,0.51702,0,37,37,23,1,,,,,,,,
,,,,,,,,,,,,foreign,foreasn,FOREIGN,RL2,m,7302,2020-10-17_14h20.42.643,ColomboPrimingTaskC,2020.1.2,MacIntel,60,,,m,1,0.40127,0,38,38,19,1,,,,,,,,
,,,,,,,,,,,,sunset,sunest,SUNSET,TL2,m,7302,2020-10-17_14h20.42.643,ColomboPrimingTaskC,2020.1.2,MacIntel,60,,,m,1,0.383155,0,39,39,68,1,,,,,,,,
,,,,,,,,,,,,arvument,avrument,ARVUMENT,TLNW,z,7302,2020-10-17_14h20.42.643,ColomboPrimingTaskC,2020.1.2,MacIntel,60,,,z,1,0.367165,0,40,40,79,1,,,,,,,,
,,,,,,,,,,,,spear,spaer,SPEAR,TL2,m,7302,2020-10-17_14h20.42.643,ColomboPrimingTaskC,2020.1.2,MacIntel,60,,,m,1,0.367125,0,41,41,62,1,,,,,,,,
,,,,,,,,,,,,petrol,pterol,PETROL,TL1,m,7302,2020-10-17_14h20.42.643,ColomboPrimingTaskC,2020.1.2,MacIntel,60,,,m,1,0.417005,0,42,42,44,1,,,,,,,,
,,,,,,,,,,,,crockle,corckle,CROCKLE,TLNW,z,7302,2020-10-17_14h20.42.643,ColomboPrimingTaskC,2020.1.2,MacIntel,60,,,z,1,0.44916,0,43,43,89,1,,,,,,,,
,,,,,,,,,,,,motter,mtoter,MOTTER,TLNW,z,7302,2020-10-17_14h20.42.643,ColomboPrimingTaskC,2020.1.2,MacIntel,60,,,z,1,0.53209,0,44,44,115,1,,,,,,,,
,,,,,,,,,,,,prince,pirnce,PRINCE,TL1,m,7302,2020-10-17_14h20.42.643,ColomboPrimingTaskC,2020.1.2,MacIntel,60,,,m,1,0.36628,0,45,45,50,1,,,,,,,,
,,,,,,,,,,,,winner,winenr,WINNER,TL2,m,7302,2020-10-17_14h20.42.643,ColomboPrimingTaskC,2020.1.2,MacIntel,60,,,z,0,0.533885,0,46,46,76,1,,,,,,,,
,,,,,,,,,,,,pigeon,pgieon,PIGEON,TL1,m,7302,2020-10-17_14h20.42.643,ColomboPrimingTaskC,2020.1.2,MacIntel,60,,,m,1,0.433565,0,47,47,45,1,,,,,,,,
,,,,,,,,,,,,clavely,calvely,CLAVELY,TLNW,z,7302,2020-10-17_14h20.42.643,ColomboPrimingTaskC,2020.1.2,MacIntel,60,,,z,1,0.88411,0,48,48,88,1,,,,,,,,
,,,,,,,,,,,,playnime,plarmime,PLAYNIME,RLNW,z,7302,2020-10-17_14h20.42.643,ColomboPrimingTaskC,2020.1.2,MacIntel,60,,,z,1,0.88361,0,49,49,120,1,,,,,,,,
,,,,,,,,,,,,legend,legord,LEGEND,RL2,m,7302,2020-10-17_14h20.42.643,ColomboPrimingTaskC,2020.1.2,MacIntel,60,,,m,1,0.600695,0,50,50,31,1,,,,,,,,
,,,,,,,,,,,,callage,callgae,CALLAGE,TLNW,z,7302,2020-10-17_14h20.42.643,ColomboPrimingTaskC,2020.1.2,MacIntel,60,,,z,1,0.582,0,51,51,83,1,,,,,,,,
,,,,,,,,,,,,referee,rfeeree,REFEREE,TL1,m,7302,2020-10-17_14h20.42.643,ColomboPrimingTaskC,2020.1.2,MacIntel,60,,,m,1,0.532885,0,52,52,52,1,,,,,,,,
,,,,,,,,,,,,round,ruond,ROUND,TL1,m,7302,2020-10-17_14h20.42.643,ColomboPrimingTaskC,2020.1.2,MacIntel,60,,,m,1,0.56684,0,53,53,55,1,,,,,,,,
,,,,,,,,,,,,button,bizton,BUTTON,RL1,m,7302,2020-10-17_14h20.42.643,ColomboPrimingTaskC,2020.1.2,MacIntel,60,,,m,1,0.535015,0,54,54,10,1,,,,,,,,
,,,,,,,,,,,,lying,lyorg,LYING,RL2,m,7302,2020-10-17_14h20.42.643,ColomboPrimingTaskC,2020.1.2,MacIntel,60,,,z,0,0.50273,0,55,55,33,1,,,,,,,,
,,,,,,,,,,,,sibble,sibode,SIBBLE,RLNW,z,7302,2020-10-17_14h20.42.643,ColomboPrimingTaskC,2020.1.2,MacIntel,60,,,z,1,0.549305,0,56,56,129,1,,,,,,,,
,,,,,,,,,,,,lopely,lopley,LOPELY,TLNW,z,7302,2020-10-17_14h20.42.643,ColomboPrimingTaskC,2020.1.2,MacIntel,60,,,z,1,0.600145,0,57,57,111,1,,,,,,,,
,,,,,,,,,,,,canivan,canvian,CANIVAN,TLNW,z,7302,2020-10-17_14h20.42.643,ColomboPrimingTaskC,2020.1.2,MacIntel,60,,,z,1,0.55405,0,58,58,84,1,,,,,,,,
,,,,,,,,,,,,orchestra,orchesdna,ORCHESTRA,RL2,m,7302,2020-10-17_14h20.42.643,ColomboPrimingTaskC,2020.1.2,MacIntel,60,,,m,1,0.58259,0,59,59,38,1,,,,,,,,
,,,,,,,,,,,,alphabet,anthabet,ALPHABET,RL1,m,7302,2020-10-17_14h20.42.643,ColomboPrimingTaskC,2020.1.2,MacIntel,60,,,m,1,0.666205,0,60,60,1,1,,,,,,,,
,,,,,,,,,,,,loarnt,lorant,LOARNT,TLNW,z,7302,2020-10-17_14h20.42.643,ColomboPrimingTaskC,2020.1.2,MacIntel,60,,,z,1,0.61883,0,61,61,110,1,,,,,,,,
,,,,,,,,,,,,hotel,hopal,HOTEL,RL2,m,7302,2020-10-17_14h20.42.643,ColomboPrimingTaskC,2020.1.2,MacIntel,60,,,m,1,0.549205,0,62,62,27,1,,,,,,,,
,,,,,,,,,,,,spailt,sparft,SPAILT,RLNW,z,7302,2020-10-17_14h20.42.643,ColomboPrimingTaskC,2020.1.2,MacIntel,60,,,z,1,0.533715,0,63,63,133,1,,,,,,,,
,,,,,,,,,,,,natural,natumel,NATURAL,RL2,m,7302,2020-10-17_14h20.42.643,ColomboPrimingTaskC,2020.1.2,MacIntel,60,,,m,1,0.55043,0,64,64,37,1,,,,,,,,
,,,,,,,,,,,,holmits,homlits,HOLMITS,TLNW,z,7302,2020-10-17_14h20.42.643,ColomboPrimingTaskC,2020.1.2,MacIntel,60,,,z,1,0.483115,0,65,65,108,1,,,,,,,,
,,,,,,,,,,,,child,crald,CHILD,RL1,m,7302,2020-10-17_14h20.42.643,ColomboPrimingTaskC,2020.1.2,MacIntel,60,,,m,1,0.632495,0,66,66,12,1,,,,,,,,
,,,,,,,,,,,,tronch,taunch,TRONCH,RLNW,z,7302,2020-10-17_14h20.42.643,ColomboPrimingTaskC,2020.1.2,MacIntel,60,,,z,1,1.29953,0,67,67,150,1,,,,,,,,
,,,,,,,,,,,,match,mansh,MATCH,RL2,m,7302,2020-10-17_14h20.42.643,ColomboPrimingTaskC,2020.1.2,MacIntel,60,,,m,1,0.552465,0,68,68,35,1,,,,,,,,
,,,,,,,,,,,,trapped,trapepd,TRAPPED,TL2,m,7302,2020-10-17_14h20.42.643,ColomboPrimingTaskC,2020.1.2,MacIntel,60,,,m,1,0.45056,0,69,69,73,1,,,,,,,,
,,,,,,,,,,,,outside,otuside,OUTSIDE,TL1,m,7302,2020-10-17_14h20.42.643,ColomboPrimingTaskC,2020.1.2,MacIntel,60,,,m,1,0.465665,0,70,70,39,1,,,,,,,,
,,,,,,,,,,,,patient,ptaient,PATIENT,TL1,m,7302,2020-10-17_14h20.42.643,ColomboPrimingTaskC,2020.1.2,MacIntel,60,,,m,1,0.41597,0,71,71,41,1,,,,,,,,
,,,,,,,,,,,,curfomers,crufomers,CURFOMERS,TLNW,z,7302,2020-10-17_14h20.42.643,ColomboPrimingTaskC,2020.1.2,MacIntel,60,,,z,1,0.53255,0,72,72,93,1,,,,,,,,
,,,,,,,,,,,,pevuliar,panuliar,PEVULIAR,RLNW,z,7302,2020-10-17_14h20.42.643,ColomboPrimingTaskC,2020.1.2,MacIntel,60,,,z,1,0.533365,0,73,73,119,1,,,,,,,,
,,,,,,,,,,,,crishing,cirshing,CRISHING,TLNW,z,7302,2020-10-17_14h20.42.643,ColomboPrimingTaskC,2020.1.2,MacIntel,60,,,z,1,0.74815,0,74,74,90,1,,,,,,,,
,,,,,,,,,,,,potato,ptoato,POTATO,TL1,m,7302,2020-10-17_14h20.42.643,ColomboPrimingTaskC,2020.1.2,MacIntel,60,,,m,1,0.651265,0,75,75,48,1,,,,,,,,
,,,,,,,,,,,,burning,bozning,BURNING,RL1,m,7302,2020-10-17_14h20.42.643,ColomboPrimingTaskC,2020.1.2,MacIntel,60,,,z,0,0.02332,0,76,76,9,1,,,,,,,,
,,,,,,,,,,,,twotched,tartched,TWOTCHED,RLNW,z,7302,2020-10-17_14h20.42.643,ColomboPrimingTaskC,2020.1.2,MacIntel,60,,,z,1,0.550085,0,77,77,151,1,,,,,,,,
,,,,,,,,,,,,swump,scomp,SWUMP,RLNW,z,7302,2020-10-17_14h20.42.643,ColomboPrimingTaskC,2020.1.2,MacIntel,60,,,z,1,0.51508,0,78,78,144,1,,,,,,,,
,,,,,,,,,,,,print,pirnt,PRINT,TL1,m,7302,2020-10-17_14h20.42.643,ColomboPrimingTaskC,2020.1.2,MacIntel,60,,,m,1,0.549855,0,79,79,51,1,,,,,,,,
,,,,,,,,,,,,panther,pnather,PANTHER,TL1,m,7302,2020-10-17_14h20.42.643,ColomboPrimingTaskC,2020.1.2,MacIntel,60,,,m,1,0.632365,0,80,80,40,1,,,,,,,,
,,,,,,,,,,,,return,rteurn,RETURN,TL1,m,7302,2020-10-17_14h20.42.643,ColomboPrimingTaskC,2020.1.2,MacIntel,60,,,m,1,0.53328,0,81,81,53,1,,,,,,,,
,,,,,,,,,,,,snake,snkae,SNAKE,TL2,m,7302,2020-10-17_14h20.42.643,ColomboPrimingTaskC,2020.1.2,MacIntel,60,,,m,1,0.89908,0,82,82,61,1,,,,,,,,
,,,,,,,,,,,,spirit,spiirt,SPIRIT,TL2,m,7302,2020-10-17_14h20.42.643,ColomboPrimingTaskC,2020.1.2,MacIntel,60,,,m,1,1.233825,0,83,83,63,1,,,,,,,,
,,,,,,,,,,,,floats,freats,FLOATS,RL1,m,7302,2020-10-17_14h20.42.643,ColomboPrimingTaskC,2020.1.2,MacIntel,60,,,m,1,0.88448,0,84,84,17,1,,,,,,,,
,,,,,,,,,,,,influence,influorce,INFLUENCE,RL2,m,7302,2020-10-17_14h20.42.643,ColomboPrimingTaskC,2020.1.2,MacIntel,60,,,m,1,0.61891,0,85,85,28,1,,,,,,,,
,,,,,,,,,,,,skirping,skawping,SKIRPING,RLNW,z,7302,2020-10-17_14h20.42.643,ColomboPrimingTaskC,2020.1.2,MacIntel,60,,,z,1,0.482655,0,86,86,131,1,,,,,,,,
,,,,,,,,,,,,stimp,sturp,STIMP,RLNW,z,7302,2020-10-17_14h20.42.643,ColomboPrimingTaskC,2020.1.2,MacIntel,60,,,z,1,0.600175,0,87,87,137,1,,,,,,,,
,,,,,,,,,,,,stoff,skaff,STOFF,RLNW,z,7302,2020-10-17_14h20.42.643,ColomboPrimingTaskC,2020.1.2,MacIntel,60,,,m,0,0.516545,0,88,88,134,1,,,,,,,,
,,,,,,,,,,,,senved,sevned,SENVED,TLNW,z,7302,2020-10-17_14h20.42.643,ColomboPrimingTaskC,2020.1.2,MacIntel,60,,,z,1,0.95128,0,89,89,101,1,,,,,,,,
,,,,,,,,,,,,forest,forict,FOREST,RL2,m,7302,2020-10-17_14h20.42.643,ColomboPrimingTaskC,2020.1.2,MacIntel,60,,,m,1,0.617375,0,90,90,20,1,,,,,,,,
,,,,,,,,,,,,mirtioned,mitrioned,MIRTIONED,TLNW,z,7302,2020-10-17_14h20.42.643,ColomboPrimingTaskC,2020.1.2,MacIntel,60,,,z,1,0.73365,0,91,91,113,1,,,,,,,,
,,,,,,,,,,,,scraff,stoaff,SCRAFF,RLNW,z,7302,2020-10-17_14h20.42.643,ColomboPrimingTaskC,2020.1.2,MacIntel,60,,,z,1,0.716665,0,92,92,128,1,,,,,,,,
,,,,,,,,,,,,thought,thouhgt,THOUGHT,TL2,m,7302,2020-10-17_14h20.42.643,ColomboPrimingTaskC,2020.1.2,MacIntel,60,,,m,1,0.91581,0,93,93,71,1,,,,,,,,
,,,,,,,,,,,,woary,wonvy,WOARY,RLNW,z,7302,2020-10-17_14h20.42.643,ColomboPrimingTaskC,2020.1.2,MacIntel,60,,,z,1,0.46633,0,94,94,153,1,,,,,,,,
,,,,,,,,,,,,summer,sumemr,SUMMER,TL2,m,7302,2020-10-17_14h20.42.643,ColomboPrimingTaskC,2020.1.2,MacIntel,60,,,m,1,0.54996,0,95,95,67,1,,,,,,,,
,,,,,,,,,,,,dored,droed,DORED,TLNW,z,7302,2020-10-17_14h20.42.643,ColomboPrimingTaskC,2020.1.2,MacIntel,60,,,z,1,0.952665,0,96,96,96,1,,,,,,,,
,,,,,,,,,,,,markles,marlkes,MARKLES,TLNW,z,7302,2020-10-17_14h20.42.643,ColomboPrimingTaskC,2020.1.2,MacIntel,60,,,z,1,0.76739,0,97,97,112,1,,,,,,,,
,,,,,,,,,,,,skiffed,skiftad,SKIFFED,RLNW,z,7302,2020-10-17_14h20.42.643,ColomboPrimingTaskC,2020.1.2,MacIntel,60,,,z,1,0.519555,0,98,98,130,1,,,,,,,,
,,,,,,,,,,,,environment,embironment,ENVIRONMENT,RL1,m,7302,2020-10-17_14h20.42.643,ColomboPrimingTaskC,2020.1.2,MacIntel,60,,,m,1,0.599675,0,99,99,16,1,,,,,,,,
,,,,,,,,,,,,vegetable,vegetalbe,VEGETABLE,TL2,m,7302,2020-10-17_14h20.42.643,ColomboPrimingTaskC,2020.1.2,MacIntel,60,,,m,1,0.450355,0,100,100,74,1,,,,,,,,
,,,,,,,,,,,,dufty,dutfy,DUFTY,TLNW,z,7302,2020-10-17_14h20.42.643,ColomboPrimingTaskC,2020.1.2,MacIntel,60,,,z,1,0.635365,0,101,101,97,1,,,,,,,,
,,,,,,,,,,,,midute,midtue,MIDUTE,TLNW,z,7302,2020-10-17_14h20.42.643,ColomboPrimingTaskC,2020.1.2,MacIntel,60,,,z,1,0.416595,0,102,102,114,1,,,,,,,,
,,,,,,,,,,,,privary,privony,PRIVARY,RLNW,z,7302,2020-10-17_14h20.42.643,ColomboPrimingTaskC,2020.1.2,MacIntel,60,,,z,1,0.916485,0,103,103,121,1,,,,,,,,
,,,,,,,,,,,,scratch,srcatch,SCRATCH,TL1,m,7302,2020-10-17_14h20.42.643,ColomboPrimingTaskC,2020.1.2,MacIntel,60,,,m,1,0.482995,0,104,104,56,1,,,,,,,,
,,,,,,,,,,,,plain,palin,PLAIN,TL1,m,7302,2020-10-17_14h20.42.643,ColomboPrimingTaskC,2020.1.2,MacIntel,60,,,m,1,0.733665,0,105,105,46,1,,,,,,,,
,,,,,,,,,,,,thirns,thowns,THIRNS,RLNW,z,7302,2020-10-17_14h20.42.643,ColomboPrimingTaskC,2020.1.2,MacIntel,60,,,z,1,0.551025,0,106,106,148,1,,,,,,,,
,,,,,,,,,,,,apting,atping,APTING,TLNW,z,7302,2020-10-17_14h20.42.643,ColomboPrimingTaskC,2020.1.2,MacIntel,60,,,z,1,0.56748,0,107,107,78,1,,,,,,,,
,,,,,,,,,,,,almond,adrond,ALMOND,RL1,m,7302,2020-10-17_14h20.42.643,ColomboPrimingTaskC,2020.1.2,MacIntel,60,,,m,1,0.650155,0,108,108,0,1,,,,,,,,
,,,,,,,,,,,,heafs,hefas,HEAFS,TLNW,z,7302,2020-10-17_14h20.42.643,ColomboPrimingTaskC,2020.1.2,MacIntel,60,,,z,1,0.66915,0,109,109,106,1,,,,,,,,
,,,,,,,,,,,,difentions,difnetions,DIFENTIONS,TLNW,z,7302,2020-10-17_14h20.42.643,ColomboPrimingTaskC,2020.1.2,MacIntel,60,,,z,1,0.75044,0,110,110,95,1,,,,,,,,
,,,,,,,,,,,,pavement,pvaement,PAVEMENT,TL1,m,7302,2020-10-17_14h20.42.643,ColomboPrimingTaskC,2020.1.2,MacIntel,60,,,m,1,0.50056,0,111,111,42,1,,,,,,,,
,,,,,,,,,,,,boach,baoch,BOACH,TLNW,z,7302,2020-10-17_14h20.42.643,ColomboPrimingTaskC,2020.1.2,MacIntel,60,,,z,1,0.55011,0,112,112,82,1,,,,,,,,
,,,,,,,,,,,,story,stroy,STORY,TL2,m,7302,2020-10-17_14h20.42.643,ColomboPrimingTaskC,2020.1.2,MacIntel,60,,,m,1,0.650155,0,113,113,66,1,,,,,,,,
,,,,,,,,,,,,roinwater,raunwater,ROINWATER,RLNW,z,7302,2020-10-17_14h20.42.643,ColomboPrimingTaskC,2020.1.2,MacIntel,60,,,z,1,0.666005,0,114,114,123,1,,,,,,,,
,,,,,,,,,,,,stody,spady,STODY,RLNW,z,7302,2020-10-17_14h20.42.643,ColomboPrimingTaskC,2020.1.2,MacIntel,60,,,z,1,0.516435,0,115,115,142,1,,,,,,,,
,,,,,,,,,,,,renorded,renaided,RENORDED,RLNW,z,7302,2020-10-17_14h20.42.643,ColomboPrimingTaskC,2020.1.2,MacIntel,60,,,z,1,1.06616,0,116,116,124,1,,,,,,,,
,,,,,,,,,,,,pench,putch,PENCH,RLNW,z,7302,2020-10-17_14h20.42.643,ColomboPrimingTaskC,2020.1.2,MacIntel,60,,,z,1,0.849935,0,117,117,118,1,,,,,,,,
,,,,,,,,,,,,instant,instort,INSTANT,RL2,m,7302,2020-10-17_14h20.42.643,ColomboPrimingTaskC,2020.1.2,MacIntel,60,,,m,1,0.61661,0,118,118,29,1,,,,,,,,
,,,,,,,,,,,,troasure,tronture,TROASURE,RLNW,z,7302,2020-10-17_14h20.42.643,ColomboPrimingTaskC,2020.1.2,MacIntel,60,,,z,1,0.68237,0,119,119,146,1,,,,,,,,
,,,,,,,,,,,,snack,sncak,SNACK,TL2,m,7302,2020-10-17_14h20.42.643,ColomboPrimingTaskC,2020.1.2,MacIntel,60,,,m,1,1.401285,0,120,120,60,1,,,,,,,,
,,,,,,,,,,,,basket,binket,BASKET,RL1,m,7302,2020-10-17_14h20.42.643,ColomboPrimingTaskC,2020.1.2,MacIntel,60,,,m,1,0.668365,0,121,121,4,1,,,,,,,,
,,,,,,,,,,,,hospital,hospidol,HOSPITAL,RL2,m,7302,2020-10-17_14h20.42.643,ColomboPrimingTaskC,2020.1.2,MacIntel,60,,,m,1,0.666075,0,122,122,26,1,,,,,,,,
,,,,,,,,,,,,enezies,eneizes,ENEZIES,TLNW,z,7302,2020-10-17_14h20.42.643,ColomboPrimingTaskC,2020.1.2,MacIntel,60,,,z,1,0.557295,0,123,123,98,1,,,,,,,,
,,,,,,,,,,,,ghost,ghurt,GHOST,RL2,m,7302,2020-10-17_14h20.42.643,ColomboPrimingTaskC,2020.1.2,MacIntel,60,,,m,1,0.515615,0,124,124,22,1,,,,,,,,
,,,,,,,,,,,,stoze,skaze,STOZE,RLNW,z,7302,2020-10-17_14h20.42.643,ColomboPrimingTaskC,2020.1.2,MacIntel,60,,,z,1,0.56696,0,125,125,141,1,,,,,,,,
,,,,,,,,,,,,sturfish,stonfish,STURFISH,RLNW,z,7302,2020-10-17_14h20.42.643,ColomboPrimingTaskC,2020.1.2,MacIntel,60,,,z,1,0.60023,0,126,126,139,1,,,,,,,,
,,,,,,,,,,,,hibernate,hibernole,HIBERNATE,RL2,m,7302,2020-10-17_14h20.42.643,ColomboPrimingTaskC,2020.1.2,MacIntel,60,,,m,1,0.59956,0,127,127,24,1,,,,,,,,
,,,,,,,,,,,,kitchen,kitckon,KITCHEN,RL2,m,7302,2020-10-17_14h20.42.643,ColomboPrimingTaskC,2020.1.2,MacIntel,60,,,m,1,0.584095,0,128,128,30,1,,,,,,,,
,,,,,,,,,,,,hoafe,hofae,HOAFE,TLNW,z,7302,2020-10-17_14h20.42.643,ColomboPrimingTaskC,2020.1.2,MacIntel,60,,,z,1,0.46738,0,129,129,107,1,,,,,,,,
,,,,,,,,,,,,crims,cirms,CRIMS,TLNW,z,7302,2020-10-17_14h20.42.643,ColomboPrimingTaskC,2020.1.2,MacIntel,60,,,z,1,0.48449,0,130,130,91,1,,,,,,,,
,,,,,,,,,,,,stipping,stipporg,STIPPING,RLNW,z,7302,2020-10-17_14h20.42.643,ColomboPrimingTaskC,2020.1.2,MacIntel,60,,,z,1,0.73355,0,131,131,140,1,,,,,,,,
,,,,,,,,,,,,meanwhile,meanwhote,MEANWHILE,RL2,m,7302,2020-10-17_14h20.42.643,ColomboPrimingTaskC,2020.1.2,MacIntel,60,,,m,1,0.74943,0,132,132,36,1,,,,,,,,
,,,,,,,,,,,,smooth,smotoh,SMOOTH,TL2,m,7302,2020-10-17_14h20.42.643,ColomboPrimingTaskC,2020.1.2,MacIntel,60,,,m,1,0.818695,0,133,133,59,1,,,,,,,,
,,,,,,,,,,,,rolin,rofan,ROLIN,RLNW,z,7302,2020-10-17_14h20.42.643,ColomboPrimingTaskC,2020.1.2,MacIntel,60,,,z,1,0.79979,0,134,134,126,1,,,,,,,,
,,,,,,,,,,,,plastic,palstic,PLASTIC,TL1,m,7302,2020-10-17_14h20.42.643,ColomboPrimingTaskC,2020.1.2,MacIntel,60,,,m,1,0.63421,0,135,135,47,1,,,,,,,,
,,,,,,,,,,,,biscuit,borcuit,BISCUIT,RL1,m,7302,2020-10-17_14h20.42.643,ColomboPrimingTaskC,2020.1.2,MacIntel,60,,,m,1,0.71583,0,136,136,7,1,,,,,,,,
,,,,,,,,,,,,sporks,spilks,SPORKS,RLNW,z,7302,2020-10-17_14h20.42.643,ColomboPrimingTaskC,2020.1.2,MacIntel,60,,,m,0,1.451605,0,137,137,132,1,,,,,,,,
,,,,,,,,,,,,leopard,leopond,LEOPARD,RL2,m,7302,2020-10-17_14h20.42.643,ColomboPrimingTaskC,2020.1.2,MacIntel,60,,,m,1,0.566015,0,138,138,32,1,,,,,,,,
,,,,,,,,,,,,powerful,pwoerful,POWERFUL,TL1,m,7302,2020-10-17_14h20.42.643,ColomboPrimingTaskC,2020.1.2,MacIntel,60,,,m,1,0.567025,0,139,139,49,1,,,,,,,,
,,,,,,,,,,,,asbrunaut,absrunaut,ASBRUNAUT,TLNW,z,7302,2020-10-17_14h20.42.643,ColomboPrimingTaskC,2020.1.2,MacIntel,60,,,z,1,0.81785,0,140,140,80,1,,,,,,,,
,,,,,,,,,,,,singer,sniger,SINGER,TL1,m,7302,2020-10-17_14h20.42.643,ColomboPrimingTaskC,2020.1.2,MacIntel,60,,,z,0,0.9166,0,141,141,57,1,,,,,,,,
,,,,,,,,,,,,talking,talknig,TALKING,TL2,m,7302,2020-10-17_14h20.42.643,ColomboPrimingTaskC,2020.1.2,MacIntel,60,,,m,1,0.50054,0,142,142,70,1,,,,,,,,
,,,,,,,,,,,,wardrobe,wardrboe,WARDROBE,TL2,m,7302,2020-10-17_14h20.42.643,ColomboPrimingTaskC,2020.1.2,MacIntel,60,,,m,1,0.467015,0,143,143,75,1,,,,,,,,
,,,,,,,,,,,,proffed,pauffed,PROFFED,RLNW,z,7302,2020-10-17_14h20.42.643,ColomboPrimingTaskC,2020.1.2,MacIntel,60,,,z,1,0.698815,0,144,144,122,1,,,,,,,,
,,,,,,,,,,,,spoff,swoff,SPOFF,RLNW,z,7302,2020-10-17_14h20.42.643,ColomboPrimingTaskC,2020.1.2,MacIntel,60,,,z,1,0.53299,0,145,145,143,1,,,,,,,,
,,,,,,,,,,,,forty,fosky,FORTY,RL2,m,7302,2020-10-17_14h20.42.643,ColomboPrimingTaskC,2020.1.2,MacIntel,60,,,m,1,0.683315,0,146,146,21,1,,,,,,,,
,,,,,,,,,,,,grufes,gurfes,GRUFES,TLNW,z,7302,2020-10-17_14h20.42.643,ColomboPrimingTaskC,2020.1.2,MacIntel,60,,,z,1,1.23342,0,147,147,105,1,,,,,,,,
,,,,,,,,,,,,standust,stalkust,STANDUST,RLNW,z,7302,2020-10-17_14h20.42.643,ColomboPrimingTaskC,2020.1.2,MacIntel,60,,,z,1,1.25014,0,148,148,138,1,,,,,,,,
,,,,,,,,,,,,stomach,stomcah,STOMACH,TL2,m,7302,2020-10-17_14h20.42.643,ColomboPrimingTaskC,2020.1.2,MacIntel,60,,,m,1,0.64961,0,149,149,65,1,,,,,,,,
,,,,,,,,,,,,robber,rbober,ROBBER,TL1,m,7302,2020-10-17_14h20.42.643,ColomboPrimingTaskC,2020.1.2,MacIntel,60,,,m,1,0.683485,0,150,150,54,1,,,,,,,,
,,,,,,,,,,,,cammied,cammeid,CAMMIED,TLNW,z,7302,2020-10-17_14h20.42.643,ColomboPrimingTaskC,2020.1.2,MacIntel,60,,,z,1,1.81725,0,151,151,85,1,,,,,,,,
,,,,,,,,,,,,flazer,falzer,FLAZER,TLNW,z,7302,2020-10-17_14h20.42.643,ColomboPrimingTaskC,2020.1.2,MacIntel,60,,,z,1,0.85011,0,152,152,102,1,,,,,,,,
,,,,,,,,,,,,taidor,tordor,TAIDOR,RLNW,z,7302,2020-10-17_14h20.42.643,ColomboPrimingTaskC,2020.1.2,MacIntel,60,,,z,1,0.550025,0,153,153,145,1,,,,,,,,
,,,,,,,,,,,,caterpiddar,catrepiddar,CATERPIDDAR,TLNW,z,7302,2020-10-17_14h20.42.643,ColomboPrimingTaskC,2020.1.2,MacIntel,60,,,z,1,1.5833,0,154,154,86,1,,,,,,,,
,,,,,,,,,,,,dentist,durtist,DENTIST,RL1,m,7302,2020-10-17_14h20.42.643,ColomboPrimingTaskC,2020.1.2,MacIntel,60,,,z,0,0.90009,0,155,155,13,1,,,,,,,,
,,,,,,,,,,,,,,,,,7302,2020-10-17_14h20.42.643,ColomboPrimingTaskC,2020.1.2,MacIntel,60,,,,,,,,,,,space,14.48794, shoes,space,8.081, we should organise a sports day instead we will all sweat a lot said elephant how about we just watch a film together instead,return,3.13139
