Space1.keys,Space1.rt,Space2.keys,Space2.rt,key_resp.keys,key_resp.corr,key_resp.rt,Practice_loop.thisRepN,Practice_loop.thisTrialN,Practice_loop.thisN,Practice_loop.thisIndex,Practice_loop.ran,Target1,Prime,Target2,Type,CorrAns,Participants I.D.,date,expName,psychopyVersion,OS,frameRate,Space3.keys,Space3.rt,key_resp_2.keys,key_resp_2.corr,key_resp_2.rt,trials.thisRepN,trials.thisTrialN,trials.thisN,trials.thisIndex,trials.ran,key_resp_3.keys,key_resp_3.rt,typedWord,key_resp_4.keys,key_resp_4.rt,typedWord2,key_resp_5.keys,key_resp_5.rt
space,1.1288,space,21.541265,z,1,1.1483,0,0,0,14,1,dinital,ditinal,DINITAL,NWTL,z,7991,2020-11-05_16h10.40.792,ColomboPrimingTaskC,2020.1.2,MacIntel,60,,,,,,,,,,,,,,,,,,
,,,,z,1,1.03621,0,1,1,13,1,cobcert,cocbert,COBCERT,NWTL,z,7991,2020-11-05_16h10.40.792,ColomboPrimingTaskC,2020.1.2,MacIntel,60,,,,,,,,,,,,,,,,,,
,,,,z,1,1.28035,0,2,2,23,1,cnipper,crupper,CNIPPER,NWRL,z,7991,2020-11-05_16h10.40.792,ColomboPrimingTaskC,2020.1.2,MacIntel,60,,,,,,,,,,,,,,,,,,
,,,,m,1,1.11047,0,3,3,5,1,library,lirbary,LIBRARY,WTL,m,7991,2020-11-05_16h10.40.792,ColomboPrimingTaskC,2020.1.2,MacIntel,60,,,,,,,,,,,,,,,,,,
,,,,m,1,0.94335,0,4,4,4,1,laundry,laudnry,LAUNDRY,WTL,m,7991,2020-11-05_16h10.40.792,ColomboPrimingTaskC,2020.1.2,MacIntel,60,,,,,,,,,,,,,,,,,,
,,,,m,1,0.755355,0,5,5,1,1,elderflower,elferdower,ELDERFLOWER,WTL,m,7991,2020-11-05_16h10.40.792,ColomboPrimingTaskC,2020.1.2,MacIntel,60,,,,,,,,,,,,,,,,,,
,,,,z,1,1.16678,0,6,6,18,1,alacus,afogus,ALACUS,NWRL,z,7991,2020-11-05_16h10.40.792,ColomboPrimingTaskC,2020.1.2,MacIntel,60,,,,,,,,,,,,,,,,,,
,,,,m,1,0.5706,0,7,7,8,1,picture,pimrure,PICTURE,WRL,m,7991,2020-11-05_16h10.40.792,ColomboPrimingTaskC,2020.1.2,MacIntel,60,,,,,,,,,,,,,,,,,,
,,,,z,1,1.76756,0,8,8,15,1,etephant,etpheant,ETEPHANT,NWTL,z,7991,2020-11-05_16h10.40.792,ColomboPrimingTaskC,2020.1.2,MacIntel,60,,,,,,,,,,,,,,,,,,
,,,,m,1,0.597545,0,9,9,2,1,festival,fetsival,FESTIVAL,WTL,m,7991,2020-11-05_16h10.40.792,ColomboPrimingTaskC,2020.1.2,MacIntel,60,,,,,,,,,,,,,,,,,,
,,,,z,1,1.35099,0,10,10,17,1,flech,felch,FLECH,NWTL,z,7991,2020-11-05_16h10.40.792,ColomboPrimingTaskC,2020.1.2,MacIntel,60,,,,,,,,,,,,,,,,,,
,,,,m,1,0.760745,0,11,11,6,1,monopoly,mogomoly,MONOPOLY,WRL,m,7991,2020-11-05_16h10.40.792,ColomboPrimingTaskC,2020.1.2,MacIntel,60,,,,,,,,,,,,,,,,,,
,,,,z,1,1.78357,0,12,12,20,1,bubbfes,buddfes,BUBBFES,NWRL,z,7991,2020-11-05_16h10.40.792,ColomboPrimingTaskC,2020.1.2,MacIntel,60,,,,,,,,,,,,,,,,,,
,,,,m,1,0.8482,0,13,13,3,1,fifty,fitfy,FIFTY,WTL,m,7991,2020-11-05_16h10.40.792,ColomboPrimingTaskC,2020.1.2,MacIntel,60,,,,,,,,,,,,,,,,,,
,,,,z,1,1.1489,0,14,14,12,1,codfort,cofdort,CODFORT,NWTL,z,7991,2020-11-05_16h10.40.792,ColomboPrimingTaskC,2020.1.2,MacIntel,60,,,,,,,,,,,,,,,,,,
,,,,m,1,0.83657,0,15,15,10,1,twitter,twitofr,TWITTER,WRL,m,7991,2020-11-05_16h10.40.792,ColomboPrimingTaskC,2020.1.2,MacIntel,60,,,,,,,,,,,,,,,,,,
,,,,z,1,0.979515,0,16,16,16,1,clirate,crilate,CLIRATE,NWTL,z,7991,2020-11-05_16h10.40.792,ColomboPrimingTaskC,2020.1.2,MacIntel,60,,,,,,,,,,,,,,,,,,
,,,,z,1,0.89947,0,17,17,22,1,chfistmas,chrustmas,CHFISTMAS,NWRL,z,7991,2020-11-05_16h10.40.792,ColomboPrimingTaskC,2020.1.2,MacIntel,60,,,,,,,,,,,,,,,,,,
,,,,m,1,1.053,0,18,18,0,1,coral,croal,CORAL,WTL,m,7991,2020-11-05_16h10.40.792,ColomboPrimingTaskC,2020.1.2,MacIntel,60,,,,,,,,,,,,,,,,,,
,,,,m,1,1.04999,0,19,19,7,1,nursery,nuftery,NURSERY,WRL,m,7991,2020-11-05_16h10.40.792,ColomboPrimingTaskC,2020.1.2,MacIntel,60,,,,,,,,,,,,,,,,,,
,,,,z,1,0.718735,0,20,20,21,1,campet,cantet,CAMPET,NWRL,z,7991,2020-11-05_16h10.40.792,ColomboPrimingTaskC,2020.1.2,MacIntel,60,,,,,,,,,,,,,,,,,,
,,,,m,1,0.76287,0,21,21,9,1,parcel,pafbel,PARCEL,WRL,m,7991,2020-11-05_16h10.40.792,ColomboPrimingTaskC,2020.1.2,MacIntel,60,,,,,,,,,,,,,,,,,,
,,,,z,1,0.685425,0,22,22,19,1,bacoon,barkon,BACOON,NWRL,z,7991,2020-11-05_16h10.40.792,ColomboPrimingTaskC,2020.1.2,MacIntel,60,,,,,,,,,,,,,,,,,,
,,,,m,1,1.02778,0,23,23,11,1,violin,viprin,VIOLIN,WRL,m,7991,2020-11-05_16h10.40.792,ColomboPrimingTaskC,2020.1.2,MacIntel,60,,,,,,,,,,,,,,,,,,
,,,,,,,,,,,,standust,stalkust,STANDUST,RLNW,z,7991,2020-11-05_16h10.40.792,ColomboPrimingTaskC,2020.1.2,MacIntel,60,space,12.31896,z,1,1.42678,0,0,0,138,1,,,,,,,,
,,,,,,,,,,,,twotched,tartched,TWOTCHED,RLNW,z,7991,2020-11-05_16h10.40.792,ColomboPrimingTaskC,2020.1.2,MacIntel,60,,,z,1,1.49495,0,1,1,151,1,,,,,,,,
,,,,,,,,,,,,pevuliar,panuliar,PEVULIAR,RLNW,z,7991,2020-11-05_16h10.40.792,ColomboPrimingTaskC,2020.1.2,MacIntel,60,,,z,1,1.09539,0,2,2,119,1,,,,,,,,
,,,,,,,,,,,,roinwater,raunwater,ROINWATER,RLNW,z,7991,2020-11-05_16h10.40.792,ColomboPrimingTaskC,2020.1.2,MacIntel,60,,,z,1,1.627425,0,3,3,123,1,,,,,,,,
,,,,,,,,,,,,entry,espry,ENTRY,RL1,m,7991,2020-11-05_16h10.40.792,ColomboPrimingTaskC,2020.1.2,MacIntel,60,,,m,1,3.444595,0,4,4,15,1,,,,,,,,
,,,,,,,,,,,,holmits,homlits,HOLMITS,TLNW,z,7991,2020-11-05_16h10.40.792,ColomboPrimingTaskC,2020.1.2,MacIntel,60,,,z,1,2.95221,0,5,5,108,1,,,,,,,,
,,,,,,,,,,,,esferiment,efseriment,ESFERIMENT,TLNW,z,7991,2020-11-05_16h10.40.792,ColomboPrimingTaskC,2020.1.2,MacIntel,60,,,z,1,2.749515,0,6,6,100,1,,,,,,,,
,,,,,,,,,,,,round,ruond,ROUND,TL1,m,7991,2020-11-05_16h10.40.792,ColomboPrimingTaskC,2020.1.2,MacIntel,60,,,m,1,1.003845,0,7,7,55,1,,,,,,,,
,,,,,,,,,,,,child,crald,CHILD,RL1,m,7991,2020-11-05_16h10.40.792,ColomboPrimingTaskC,2020.1.2,MacIntel,60,,,m,1,0.795515,0,8,8,12,1,,,,,,,,
,,,,,,,,,,,,crims,cirms,CRIMS,TLNW,z,7991,2020-11-05_16h10.40.792,ColomboPrimingTaskC,2020.1.2,MacIntel,60,,,z,1,0.985815,0,9,9,91,1,,,,,,,,
,,,,,,,,,,,,callage,callgae,CALLAGE,TLNW,z,7991,2020-11-05_16h10.40.792,ColomboPrimingTaskC,2020.1.2,MacIntel,60,,,z,1,1.12781,0,10,10,83,1,,,,,,,,
,,,,,,,,,,,,crockle,corckle,CROCKLE,TLNW,z,7991,2020-11-05_16h10.40.792,ColomboPrimingTaskC,2020.1.2,MacIntel,60,,,z,1,2.560975,0,11,11,89,1,,,,,,,,
,,,,,,,,,,,,dored,droed,DORED,TLNW,z,7991,2020-11-05_16h10.40.792,ColomboPrimingTaskC,2020.1.2,MacIntel,60,,,z,1,0.79708,0,12,12,96,1,,,,,,,,
,,,,,,,,,,,,burning,bozning,BURNING,RL1,m,7991,2020-11-05_16h10.40.792,ColomboPrimingTaskC,2020.1.2,MacIntel,60,,,m,1,1.031135,0,13,13,9,1,,,,,,,,
,,,,,,,,,,,,rolin,rofan,ROLIN,RLNW,z,7991,2020-11-05_16h10.40.792,ColomboPrimingTaskC,2020.1.2,MacIntel,60,,,z,1,0.935095,0,14,14,126,1,,,,,,,,
,,,,,,,,,,,,stull,storl,STULL,RLNW,z,7991,2020-11-05_16h10.40.792,ColomboPrimingTaskC,2020.1.2,MacIntel,60,,,z,1,0.7706,0,15,15,136,1,,,,,,,,
,,,,,,,,,,,,robber,rbober,ROBBER,TL1,m,7991,2020-11-05_16h10.40.792,ColomboPrimingTaskC,2020.1.2,MacIntel,60,,,m,1,1.01496,0,16,16,54,1,,,,,,,,
,,,,,,,,,,,,instant,instort,INSTANT,RL2,m,7991,2020-11-05_16h10.40.792,ColomboPrimingTaskC,2020.1.2,MacIntel,60,,,m,1,0.647095,0,17,17,29,1,,,,,,,,
,,,,,,,,,,,,hotel,hopal,HOTEL,RL2,m,7991,2020-11-05_16h10.40.792,ColomboPrimingTaskC,2020.1.2,MacIntel,60,,,m,1,1.41407,0,18,18,27,1,,,,,,,,
,,,,,,,,,,,,story,stroy,STORY,TL2,m,7991,2020-11-05_16h10.40.792,ColomboPrimingTaskC,2020.1.2,MacIntel,60,,,m,1,0.749355,0,19,19,66,1,,,,,,,,
,,,,,,,,,,,,prince,pirnce,PRINCE,TL1,m,7991,2020-11-05_16h10.40.792,ColomboPrimingTaskC,2020.1.2,MacIntel,60,,,m,1,1.227735,0,20,20,50,1,,,,,,,,
,,,,,,,,,,,,lying,lyorg,LYING,RL2,m,7991,2020-11-05_16h10.40.792,ColomboPrimingTaskC,2020.1.2,MacIntel,60,,,m,1,0.935545,0,21,21,33,1,,,,,,,,
,,,,,,,,,,,,yowned,yoazed,YOWNED,RLNW,z,7991,2020-11-05_16h10.40.792,ColomboPrimingTaskC,2020.1.2,MacIntel,60,,,z,1,0.964135,0,22,22,155,1,,,,,,,,
,,,,,,,,,,,,spirit,spiirt,SPIRIT,TL2,m,7991,2020-11-05_16h10.40.792,ColomboPrimingTaskC,2020.1.2,MacIntel,60,,,m,1,0.915515,0,23,23,63,1,,,,,,,,
,,,,,,,,,,,,almond,adrond,ALMOND,RL1,m,7991,2020-11-05_16h10.40.792,ColomboPrimingTaskC,2020.1.2,MacIntel,60,,,m,1,0.6797,0,24,24,0,1,,,,,,,,
,,,,,,,,,,,,boach,baoch,BOACH,TLNW,z,7991,2020-11-05_16h10.40.792,ColomboPrimingTaskC,2020.1.2,MacIntel,60,,,z,1,0.978745,0,25,25,82,1,,,,,,,,
,,,,,,,,,,,,floats,freats,FLOATS,RL1,m,7991,2020-11-05_16h10.40.792,ColomboPrimingTaskC,2020.1.2,MacIntel,60,,,m,1,1.183365,0,26,26,17,1,,,,,,,,
,,,,,,,,,,,,motter,mtoter,MOTTER,TLNW,z,7991,2020-11-05_16h10.40.792,ColomboPrimingTaskC,2020.1.2,MacIntel,60,,,z,1,0.78255,0,27,27,115,1,,,,,,,,
,,,,,,,,,,,,playnime,plarmime,PLAYNIME,RLNW,z,7991,2020-11-05_16h10.40.792,ColomboPrimingTaskC,2020.1.2,MacIntel,60,,,z,1,0.777265,0,28,28,120,1,,,,,,,,
,,,,,,,,,,,,bidger,bdiger,BIDGER,TLNW,z,7991,2020-11-05_16h10.40.792,ColomboPrimingTaskC,2020.1.2,MacIntel,60,,,z,1,0.79906,0,29,29,81,1,,,,,,,,
,,,,,,,,,,,,kitchen,kitckon,KITCHEN,RL2,m,7991,2020-11-05_16h10.40.792,ColomboPrimingTaskC,2020.1.2,MacIntel,60,,,m,1,0.831275,0,30,30,30,1,,,,,,,,
,,,,,,,,,,,,caterpiddar,catrepiddar,CATERPIDDAR,TLNW,z,7991,2020-11-05_16h10.40.792,ColomboPrimingTaskC,2020.1.2,MacIntel,60,,,z,1,0.84709,0,31,31,86,1,,,,,,,,
,,,,,,,,,,,,stoff,skaff,STOFF,RLNW,z,7991,2020-11-05_16h10.40.792,ColomboPrimingTaskC,2020.1.2,MacIntel,60,,,z,1,0.962555,0,32,32,134,1,,,,,,,,
,,,,,,,,,,,,holiday,holitoy,HOLIDAY,RL2,m,7991,2020-11-05_16h10.40.792,ColomboPrimingTaskC,2020.1.2,MacIntel,60,,,m,1,1.246755,0,33,33,25,1,,,,,,,,
,,,,,,,,,,,,onerall,onuvall,ONERALL,RLNW,z,7991,2020-11-05_16h10.40.792,ColomboPrimingTaskC,2020.1.2,MacIntel,60,,,z,1,1.349555,0,34,34,117,1,,,,,,,,
,,,,,,,,,,,,renorded,renaided,RENORDED,RLNW,z,7991,2020-11-05_16h10.40.792,ColomboPrimingTaskC,2020.1.2,MacIntel,60,,,z,1,0.83405,0,35,35,124,1,,,,,,,,
,,,,,,,,,,,,forest,forict,FOREST,RL2,m,7991,2020-11-05_16h10.40.792,ColomboPrimingTaskC,2020.1.2,MacIntel,60,,,m,1,0.645375,0,36,36,20,1,,,,,,,,
,,,,,,,,,,,,swallow,swalolw,SWALLOW,TL2,m,7991,2020-11-05_16h10.40.792,ColomboPrimingTaskC,2020.1.2,MacIntel,60,,,m,1,1.680385,0,37,37,69,1,,,,,,,,
,,,,,,,,,,,,drink,dwonk,DRINK,RL1,m,7991,2020-11-05_16h10.40.792,ColomboPrimingTaskC,2020.1.2,MacIntel,60,,,m,1,1.08412,0,38,38,14,1,,,,,,,,
,,,,,,,,,,,,heafs,hefas,HEAFS,TLNW,z,7991,2020-11-05_16h10.40.792,ColomboPrimingTaskC,2020.1.2,MacIntel,60,,,z,1,2.198335,0,39,39,106,1,,,,,,,,
,,,,,,,,,,,,singer,sniger,SINGER,TL1,m,7991,2020-11-05_16h10.40.792,ColomboPrimingTaskC,2020.1.2,MacIntel,60,,,m,1,1.31557,0,40,40,57,1,,,,,,,,
,,,,,,,,,,,,flazer,falzer,FLAZER,TLNW,z,7991,2020-11-05_16h10.40.792,ColomboPrimingTaskC,2020.1.2,MacIntel,60,,,z,1,1.13018,0,41,41,102,1,,,,,,,,
,,,,,,,,,,,,around,avaund,AROUND,RL1,m,7991,2020-11-05_16h10.40.792,ColomboPrimingTaskC,2020.1.2,MacIntel,60,,,m,1,0.57938,0,42,42,2,1,,,,,,,,
,,,,,,,,,,,,outside,otuside,OUTSIDE,TL1,m,7991,2020-11-05_16h10.40.792,ColomboPrimingTaskC,2020.1.2,MacIntel,60,,,m,1,0.630125,0,43,43,39,1,,,,,,,,
,,,,,,,,,,,,dentist,durtist,DENTIST,RL1,m,7991,2020-11-05_16h10.40.792,ColomboPrimingTaskC,2020.1.2,MacIntel,60,,,m,1,0.917415,0,44,44,13,1,,,,,,,,
,,,,,,,,,,,,gniching,ginching,GNICHING,TLNW,z,7991,2020-11-05_16h10.40.792,ColomboPrimingTaskC,2020.1.2,MacIntel,60,,,z,1,0.627925,0,45,45,104,1,,,,,,,,
,,,,,,,,,,,,dufty,dutfy,DUFTY,TLNW,z,7991,2020-11-05_16h10.40.792,ColomboPrimingTaskC,2020.1.2,MacIntel,60,,,z,1,1.461165,0,46,46,97,1,,,,,,,,
,,,,,,,,,,,,foreign,foreasn,FOREIGN,RL2,m,7991,2020-11-05_16h10.40.792,ColomboPrimingTaskC,2020.1.2,MacIntel,60,,,m,1,1.201715,0,47,47,19,1,,,,,,,,
,,,,,,,,,,,,alphabet,anthabet,ALPHABET,RL1,m,7991,2020-11-05_16h10.40.792,ColomboPrimingTaskC,2020.1.2,MacIntel,60,,,m,1,0.965425,0,48,48,1,1,,,,,,,,
,,,,,,,,,,,,blanket,bronket,BLANKET,RL1,m,7991,2020-11-05_16h10.40.792,ColomboPrimingTaskC,2020.1.2,MacIntel,60,,,m,1,0.78068,0,49,49,8,1,,,,,,,,
,,,,,,,,,,,,awful,amdul,AWFUL,RL1,m,7991,2020-11-05_16h10.40.792,ColomboPrimingTaskC,2020.1.2,MacIntel,60,,,m,1,0.644595,0,50,50,3,1,,,,,,,,
,,,,,,,,,,,,legend,legord,LEGEND,RL2,m,7991,2020-11-05_16h10.40.792,ColomboPrimingTaskC,2020.1.2,MacIntel,60,,,m,1,2.461735,0,51,51,31,1,,,,,,,,
,,,,,,,,,,,,potato,ptoato,POTATO,TL1,m,7991,2020-11-05_16h10.40.792,ColomboPrimingTaskC,2020.1.2,MacIntel,60,,,m,1,1.066585,0,52,52,48,1,,,,,,,,
,,,,,,,,,,,,markles,marlkes,MARKLES,TLNW,z,7991,2020-11-05_16h10.40.792,ColomboPrimingTaskC,2020.1.2,MacIntel,60,,,z,1,1.117045,0,53,53,112,1,,,,,,,,
,,,,,,,,,,,,thoatre,thoikre,THOATRE,RLNW,z,7991,2020-11-05_16h10.40.792,ColomboPrimingTaskC,2020.1.2,MacIntel,60,,,z,1,0.776225,0,54,54,147,1,,,,,,,,
,,,,,,,,,,,,proffed,pauffed,PROFFED,RLNW,z,7991,2020-11-05_16h10.40.792,ColomboPrimingTaskC,2020.1.2,MacIntel,60,,,z,1,0.966535,0,55,55,122,1,,,,,,,,
,,,,,,,,,,,,stipping,stipporg,STIPPING,RLNW,z,7991,2020-11-05_16h10.40.792,ColomboPrimingTaskC,2020.1.2,MacIntel,60,,,z,1,2.320665,0,56,56,140,1,,,,,,,,
,,,,,,,,,,,,rimble,rirkle,RIMBLE,RLNW,z,7991,2020-11-05_16h10.40.792,ColomboPrimingTaskC,2020.1.2,MacIntel,60,,,z,1,2.36277,0,57,57,127,1,,,,,,,,
,,,,,,,,,,,,knorn,konrn,KNORN,TLNW,z,7991,2020-11-05_16h10.40.792,ColomboPrimingTaskC,2020.1.2,MacIntel,60,,,z,1,2.83172,0,58,58,109,1,,,,,,,,
,,,,,,,,,,,,sporks,spilks,SPORKS,RLNW,z,7991,2020-11-05_16h10.40.792,ColomboPrimingTaskC,2020.1.2,MacIntel,60,,,z,1,0.745905,0,59,59,132,1,,,,,,,,
,,,,,,,,,,,,vegetable,vegetalbe,VEGETABLE,TL2,m,7991,2020-11-05_16h10.40.792,ColomboPrimingTaskC,2020.1.2,MacIntel,60,,,m,1,1.29996,0,60,60,74,1,,,,,,,,
,,,,,,,,,,,,market,mardot,MARKET,RL2,m,7991,2020-11-05_16h10.40.792,ColomboPrimingTaskC,2020.1.2,MacIntel,60,,,m,1,1.26357,0,61,61,34,1,,,,,,,,
,,,,,,,,,,,,plain,palin,PLAIN,TL1,m,7991,2020-11-05_16h10.40.792,ColomboPrimingTaskC,2020.1.2,MacIntel,60,,,m,1,0.765315,0,62,62,46,1,,,,,,,,
,,,,,,,,,,,,smooth,smotoh,SMOOTH,TL2,m,7991,2020-11-05_16h10.40.792,ColomboPrimingTaskC,2020.1.2,MacIntel,60,,,m,1,0.634445,0,63,63,59,1,,,,,,,,
,,,,,,,,,,,,winter,winetr,WINTER,TL2,m,7991,2020-11-05_16h10.40.792,ColomboPrimingTaskC,2020.1.2,MacIntel,60,,,m,1,0.96626,0,64,64,77,1,,,,,,,,
,,,,,,,,,,,,niffling,nilffing,NIFFLING,TLNW,z,7991,2020-11-05_16h10.40.792,ColomboPrimingTaskC,2020.1.2,MacIntel,60,,,z,1,0.763365,0,65,65,116,1,,,,,,,,
,,,,,,,,,,,,tourist,toursit,TOURIST,TL2,m,7991,2020-11-05_16h10.40.792,ColomboPrimingTaskC,2020.1.2,MacIntel,60,,,m,1,0.81069,0,66,66,72,1,,,,,,,,
,,,,,,,,,,,,ghost,ghurt,GHOST,RL2,m,7991,2020-11-05_16h10.40.792,ColomboPrimingTaskC,2020.1.2,MacIntel,60,,,m,1,0.96578,0,67,67,22,1,,,,,,,,
,,,,,,,,,,,,scratch,srcatch,SCRATCH,TL1,m,7991,2020-11-05_16h10.40.792,ColomboPrimingTaskC,2020.1.2,MacIntel,60,,,m,1,1.465715,0,68,68,56,1,,,,,,,,
,,,,,,,,,,,,troasure,tronture,TROASURE,RLNW,z,7991,2020-11-05_16h10.40.792,ColomboPrimingTaskC,2020.1.2,MacIntel,60,,,z,1,1.945305,0,69,69,146,1,,,,,,,,
,,,,,,,,,,,,wutch,wursh,WUTCH,RLNW,z,7991,2020-11-05_16h10.40.792,ColomboPrimingTaskC,2020.1.2,MacIntel,60,,,z,1,0.696905,0,70,70,154,1,,,,,,,,
,,,,,,,,,,,,stody,spady,STODY,RLNW,z,7991,2020-11-05_16h10.40.792,ColomboPrimingTaskC,2020.1.2,MacIntel,60,,,z,1,1.18154,0,71,71,142,1,,,,,,,,
,,,,,,,,,,,,orchestra,orchesdna,ORCHESTRA,RL2,m,7991,2020-11-05_16h10.40.792,ColomboPrimingTaskC,2020.1.2,MacIntel,60,,,m,1,0.584195,0,72,72,38,1,,,,,,,,
,,,,,,,,,,,,fulore,fluore,FULORE,TLNW,z,7991,2020-11-05_16h10.40.792,ColomboPrimingTaskC,2020.1.2,MacIntel,60,,,z,1,0.73337,0,73,73,103,1,,,,,,,,
,,,,,,,,,,,,curfomers,crufomers,CURFOMERS,TLNW,z,7991,2020-11-05_16h10.40.792,ColomboPrimingTaskC,2020.1.2,MacIntel,60,,,z,1,0.863385,0,74,74,93,1,,,,,,,,
,,,,,,,,,,,,sunset,sunest,SUNSET,TL2,m,7991,2020-11-05_16h10.40.792,ColomboPrimingTaskC,2020.1.2,MacIntel,60,,,m,1,0.531455,0,75,75,68,1,,,,,,,,
,,,,,,,,,,,,statue,staute,STATUE,TL2,m,7991,2020-11-05_16h10.40.792,ColomboPrimingTaskC,2020.1.2,MacIntel,60,,,m,1,0.59748,0,76,76,64,1,,,,,,,,
,,,,,,,,,,,,wardrobe,wardrboe,WARDROBE,TL2,m,7991,2020-11-05_16h10.40.792,ColomboPrimingTaskC,2020.1.2,MacIntel,60,,,m,1,0.911165,0,77,77,75,1,,,,,,,,
,,,,,,,,,,,,spailt,sparft,SPAILT,RLNW,z,7991,2020-11-05_16h10.40.792,ColomboPrimingTaskC,2020.1.2,MacIntel,60,,,z,1,0.52899,0,78,78,133,1,,,,,,,,
,,,,,,,,,,,,wilked,winted,WILKED,RLNW,z,7991,2020-11-05_16h10.40.792,ColomboPrimingTaskC,2020.1.2,MacIntel,60,,,m,0,0.816835,0,79,79,152,1,,,,,,,,
,,,,,,,,,,,,scraff,stoaff,SCRAFF,RLNW,z,7991,2020-11-05_16h10.40.792,ColomboPrimingTaskC,2020.1.2,MacIntel,60,,,z,1,1.03473,0,80,80,128,1,,,,,,,,
,,,,,,,,,,,,loarnt,lorant,LOARNT,TLNW,z,7991,2020-11-05_16h10.40.792,ColomboPrimingTaskC,2020.1.2,MacIntel,60,,,z,1,1.117065,0,81,81,110,1,,,,,,,,
,,,,,,,,,,,,biscuit,borcuit,BISCUIT,RL1,m,7991,2020-11-05_16h10.40.792,ColomboPrimingTaskC,2020.1.2,MacIntel,60,,,m,1,0.833105,0,82,82,7,1,,,,,,,,
,,,,,,,,,,,,trapped,trapepd,TRAPPED,TL2,m,7991,2020-11-05_16h10.40.792,ColomboPrimingTaskC,2020.1.2,MacIntel,60,,,m,1,0.895475,0,83,83,73,1,,,,,,,,
,,,,,,,,,,,,sibble,sibode,SIBBLE,RLNW,z,7991,2020-11-05_16h10.40.792,ColomboPrimingTaskC,2020.1.2,MacIntel,60,,,z,1,1.33374,0,84,84,129,1,,,,,,,,
,,,,,,,,,,,,stomach,stomcah,STOMACH,TL2,m,7991,2020-11-05_16h10.40.792,ColomboPrimingTaskC,2020.1.2,MacIntel,60,,,m,1,0.58298,0,85,85,65,1,,,,,,,,
,,,,,,,,,,,,talking,talknig,TALKING,TL2,m,7991,2020-11-05_16h10.40.792,ColomboPrimingTaskC,2020.1.2,MacIntel,60,,,m,1,0.58321,0,86,86,70,1,,,,,,,,
,,,,,,,,,,,,swump,scomp,SWUMP,RLNW,z,7991,2020-11-05_16h10.40.792,ColomboPrimingTaskC,2020.1.2,MacIntel,60,,,z,1,1.081025,0,87,87,144,1,,,,,,,,
,,,,,,,,,,,,leopard,leopond,LEOPARD,RL2,m,7991,2020-11-05_16h10.40.792,ColomboPrimingTaskC,2020.1.2,MacIntel,60,,,m,1,1.16367,0,88,88,32,1,,,,,,,,
,,,,,,,,,,,,pavement,pvaement,PAVEMENT,TL1,m,7991,2020-11-05_16h10.40.792,ColomboPrimingTaskC,2020.1.2,MacIntel,60,,,z,0,1.74892,0,89,89,42,1,,,,,,,,
,,,,,,,,,,,,skiffed,skiftad,SKIFFED,RLNW,z,7991,2020-11-05_16h10.40.792,ColomboPrimingTaskC,2020.1.2,MacIntel,60,,,z,1,1.5468,0,90,90,130,1,,,,,,,,
,,,,,,,,,,,,tronch,taunch,TRONCH,RLNW,z,7991,2020-11-05_16h10.40.792,ColomboPrimingTaskC,2020.1.2,MacIntel,60,,,z,1,1.79952,0,91,91,150,1,,,,,,,,
,,,,,,,,,,,,patient,ptaient,PATIENT,TL1,m,7991,2020-11-05_16h10.40.792,ColomboPrimingTaskC,2020.1.2,MacIntel,60,,,m,1,0.6492,0,92,92,41,1,,,,,,,,
,,,,,,,,,,,,stimp,sturp,STIMP,RLNW,z,7991,2020-11-05_16h10.40.792,ColomboPrimingTaskC,2020.1.2,MacIntel,60,,,z,1,0.931755,0,93,93,137,1,,,,,,,,
,,,,,,,,,,,,basket,binket,BASKET,RL1,m,7991,2020-11-05_16h10.40.792,ColomboPrimingTaskC,2020.1.2,MacIntel,60,,,m,1,0.699715,0,94,94,4,1,,,,,,,,
,,,,,,,,,,,,summer,sumemr,SUMMER,TL2,m,7991,2020-11-05_16h10.40.792,ColomboPrimingTaskC,2020.1.2,MacIntel,60,,,m,1,1.511525,0,95,95,67,1,,,,,,,,
,,,,,,,,,,,,pigeon,pgieon,PIGEON,TL1,m,7991,2020-11-05_16h10.40.792,ColomboPrimingTaskC,2020.1.2,MacIntel,60,,,m,1,0.751485,0,96,96,45,1,,,,,,,,
,,,,,,,,,,,,hospital,hospidol,HOSPITAL,RL2,m,7991,2020-11-05_16h10.40.792,ColomboPrimingTaskC,2020.1.2,MacIntel,60,,,m,1,0.628065,0,97,97,26,1,,,,,,,,
,,,,,,,,,,,,difentions,difnetions,DIFENTIONS,TLNW,z,7991,2020-11-05_16h10.40.792,ColomboPrimingTaskC,2020.1.2,MacIntel,60,,,z,1,0.900235,0,98,98,95,1,,,,,,,,
,,,,,,,,,,,,senved,sevned,SENVED,TLNW,z,7991,2020-11-05_16h10.40.792,ColomboPrimingTaskC,2020.1.2,MacIntel,60,,,z,1,1.212345,0,99,99,101,1,,,,,,,,
,,,,,,,,,,,,skirping,skawping,SKIRPING,RLNW,z,7991,2020-11-05_16h10.40.792,ColomboPrimingTaskC,2020.1.2,MacIntel,60,,,z,1,1.068995,0,100,100,131,1,,,,,,,,
,,,,,,,,,,,,panther,pnather,PANTHER,TL1,m,7991,2020-11-05_16h10.40.792,ColomboPrimingTaskC,2020.1.2,MacIntel,60,,,m,1,0.846125,0,101,101,40,1,,,,,,,,
,,,,,,,,,,,,powerful,pwoerful,POWERFUL,TL1,m,7991,2020-11-05_16h10.40.792,ColomboPrimingTaskC,2020.1.2,MacIntel,60,,,m,1,0.949995,0,102,102,49,1,,,,,,,,
,,,,,,,,,,,,hoafe,hofae,HOAFE,TLNW,z,7991,2020-11-05_16h10.40.792,ColomboPrimingTaskC,2020.1.2,MacIntel,60,,,z,1,0.716295,0,103,103,107,1,,,,,,,,
,,,,,,,,,,,,cammied,cammeid,CAMMIED,TLNW,z,7991,2020-11-05_16h10.40.792,ColomboPrimingTaskC,2020.1.2,MacIntel,60,,,z,1,0.79904,0,104,104,85,1,,,,,,,,
,,,,,,,,,,,,heaven,heamon,HEAVEN,RL2,m,7991,2020-11-05_16h10.40.792,ColomboPrimingTaskC,2020.1.2,MacIntel,60,,,m,1,0.678705,0,105,105,23,1,,,,,,,,
,,,,,,,,,,,,crunphy,curnphy,CRUNPHY,TLNW,z,7991,2020-11-05_16h10.40.792,ColomboPrimingTaskC,2020.1.2,MacIntel,60,,,z,1,0.998385,0,106,106,92,1,,,,,,,,
,,,,,,,,,,,,chicken,clecken,CHICKEN,RL1,m,7991,2020-11-05_16h10.40.792,ColomboPrimingTaskC,2020.1.2,MacIntel,60,,,m,1,0.79841,0,107,107,11,1,,,,,,,,
,,,,,,,,,,,,hibernate,hibernole,HIBERNATE,RL2,m,7991,2020-11-05_16h10.40.792,ColomboPrimingTaskC,2020.1.2,MacIntel,60,,,m,1,0.6652,0,108,108,24,1,,,,,,,,
,,,,,,,,,,,,influence,influorce,INFLUENCE,RL2,m,7991,2020-11-05_16h10.40.792,ColomboPrimingTaskC,2020.1.2,MacIntel,60,,,m,1,0.613745,0,109,109,28,1,,,,,,,,
,,,,,,,,,,,,penguin,pneguin,PENGUIN,TL1,m,7991,2020-11-05_16h10.40.792,ColomboPrimingTaskC,2020.1.2,MacIntel,60,,,m,1,1.99561,0,110,110,43,1,,,,,,,,
,,,,,,,,,,,,pench,putch,PENCH,RLNW,z,7991,2020-11-05_16h10.40.792,ColomboPrimingTaskC,2020.1.2,MacIntel,60,,,m,0,1.682915,0,111,111,118,1,,,,,,,,
,,,,,,,,,,,,sturfish,stonfish,STURFISH,RLNW,z,7991,2020-11-05_16h10.40.792,ColomboPrimingTaskC,2020.1.2,MacIntel,60,,,z,1,0.75008,0,112,112,139,1,,,,,,,,
,,,,,,,,,,,,thought,thouhgt,THOUGHT,TL2,m,7991,2020-11-05_16h10.40.792,ColomboPrimingTaskC,2020.1.2,MacIntel,60,,,m,1,1.32843,0,113,113,71,1,,,,,,,,
,,,,,,,,,,,,following,farlowing,FOLLOWING,RL1,m,7991,2020-11-05_16h10.40.792,ColomboPrimingTaskC,2020.1.2,MacIntel,60,,,m,1,0.647835,0,114,114,18,1,,,,,,,,
,,,,,,,,,,,,return,rteurn,RETURN,TL1,m,7991,2020-11-05_16h10.40.792,ColomboPrimingTaskC,2020.1.2,MacIntel,60,,,m,1,0.716985,0,115,115,53,1,,,,,,,,
,,,,,,,,,,,,print,pirnt,PRINT,TL1,m,7991,2020-11-05_16h10.40.792,ColomboPrimingTaskC,2020.1.2,MacIntel,60,,,m,1,0.68105,0,116,116,51,1,,,,,,,,
,,,,,,,,,,,,snack,sncak,SNACK,TL2,m,7991,2020-11-05_16h10.40.792,ColomboPrimingTaskC,2020.1.2,MacIntel,60,,,m,1,0.98137,0,117,117,60,1,,,,,,,,
,,,,,,,,,,,,grufes,gurfes,GRUFES,TLNW,z,7991,2020-11-05_16h10.40.792,ColomboPrimingTaskC,2020.1.2,MacIntel,60,,,z,1,0.79372,0,118,118,105,1,,,,,,,,
,,,,,,,,,,,,button,bizton,BUTTON,RL1,m,7991,2020-11-05_16h10.40.792,ColomboPrimingTaskC,2020.1.2,MacIntel,60,,,m,1,1.01371,0,119,119,10,1,,,,,,,,
,,,,,,,,,,,,woary,wonvy,WOARY,RLNW,z,7991,2020-11-05_16h10.40.792,ColomboPrimingTaskC,2020.1.2,MacIntel,60,,,z,1,1.20069,0,120,120,153,1,,,,,,,,
,,,,,,,,,,,,crishing,cirshing,CRISHING,TLNW,z,7991,2020-11-05_16h10.40.792,ColomboPrimingTaskC,2020.1.2,MacIntel,60,,,z,1,1.980625,0,121,121,90,1,,,,,,,,
,,,,,,,,,,,,arvument,avrument,ARVUMENT,TLNW,z,7991,2020-11-05_16h10.40.792,ColomboPrimingTaskC,2020.1.2,MacIntel,60,,,z,1,1.029305,0,122,122,79,1,,,,,,,,
,,,,,,,,,,,,stoze,skaze,STOZE,RLNW,z,7991,2020-11-05_16h10.40.792,ColomboPrimingTaskC,2020.1.2,MacIntel,60,,,z,1,0.632495,0,123,123,141,1,,,,,,,,
,,,,,,,,,,,,match,mansh,MATCH,RL2,m,7991,2020-11-05_16h10.40.792,ColomboPrimingTaskC,2020.1.2,MacIntel,60,,,m,1,0.739455,0,124,124,35,1,,,,,,,,
,,,,,,,,,,,,thirns,thowns,THIRNS,RLNW,z,7991,2020-11-05_16h10.40.792,ColomboPrimingTaskC,2020.1.2,MacIntel,60,,,z,1,0.633845,0,125,125,148,1,,,,,,,,
,,,,,,,,,,,,stilks,stofks,STILKS,RLNW,z,7991,2020-11-05_16h10.40.792,ColomboPrimingTaskC,2020.1.2,MacIntel,60,,,z,1,0.679445,0,126,126,135,1,,,,,,,,
,,,,,,,,,,,,petrol,pterol,PETROL,TL1,m,7991,2020-11-05_16h10.40.792,ColomboPrimingTaskC,2020.1.2,MacIntel,60,,,m,1,0.69943,0,127,127,44,1,,,,,,,,
,,,,,,,,,,,,taidor,tordor,TAIDOR,RLNW,z,7991,2020-11-05_16h10.40.792,ColomboPrimingTaskC,2020.1.2,MacIntel,60,,,z,1,1.433835,0,128,128,145,1,,,,,,,,
,,,,,,,,,,,,spoff,swoff,SPOFF,RLNW,z,7991,2020-11-05_16h10.40.792,ColomboPrimingTaskC,2020.1.2,MacIntel,60,,,z,1,0.912705,0,129,129,143,1,,,,,,,,
,,,,,,,,,,,,apting,atping,APTING,TLNW,z,7991,2020-11-05_16h10.40.792,ColomboPrimingTaskC,2020.1.2,MacIntel,60,,,z,1,0.745285,0,130,130,78,1,,,,,,,,
,,,,,,,,,,,,snake,snkae,SNAKE,TL2,m,7991,2020-11-05_16h10.40.792,ColomboPrimingTaskC,2020.1.2,MacIntel,60,,,m,1,0.68063,0,131,131,61,1,,,,,,,,
,,,,,,,,,,,,tomay,tovoy,TOMAY,RLNW,z,7991,2020-11-05_16h10.40.792,ColomboPrimingTaskC,2020.1.2,MacIntel,60,,,z,1,0.831235,0,132,132,149,1,,,,,,,,
,,,,,,,,,,,,rolief,rolalf,ROLIEF,RLNW,z,7991,2020-11-05_16h10.40.792,ColomboPrimingTaskC,2020.1.2,MacIntel,60,,,z,1,0.65125,0,133,133,125,1,,,,,,,,
,,,,,,,,,,,,chupter,chutper,CHUPTER,TLNW,z,7991,2020-11-05_16h10.40.792,ColomboPrimingTaskC,2020.1.2,MacIntel,60,,,z,1,0.59665,0,134,134,87,1,,,,,,,,
,,,,,,,,,,,,plastic,palstic,PLASTIC,TL1,m,7991,2020-11-05_16h10.40.792,ColomboPrimingTaskC,2020.1.2,MacIntel,60,,,m,1,0.764835,0,135,135,47,1,,,,,,,,
,,,,,,,,,,,,meanwhile,meanwhote,MEANWHILE,RL2,m,7991,2020-11-05_16h10.40.792,ColomboPrimingTaskC,2020.1.2,MacIntel,60,,,m,1,0.581215,0,136,136,36,1,,,,,,,,
,,,,,,,,,,,,spear,spaer,SPEAR,TL2,m,7991,2020-11-05_16h10.40.792,ColomboPrimingTaskC,2020.1.2,MacIntel,60,,,m,1,0.632365,0,137,137,62,1,,,,,,,,
,,,,,,,,,,,,dimotaurs,diomtaurs,DIMOTAURS,TLNW,z,7991,2020-11-05_16h10.40.792,ColomboPrimingTaskC,2020.1.2,MacIntel,60,,,z,1,0.9658,0,138,138,94,1,,,,,,,,
,,,,,,,,,,,,natural,natumel,NATURAL,RL2,m,7991,2020-11-05_16h10.40.792,ColomboPrimingTaskC,2020.1.2,MacIntel,60,,,m,1,0.596555,0,139,139,37,1,,,,,,,,
,,,,,,,,,,,,winner,winenr,WINNER,TL2,m,7991,2020-11-05_16h10.40.792,ColomboPrimingTaskC,2020.1.2,MacIntel,60,,,m,1,0.968465,0,140,140,76,1,,,,,,,,
,,,,,,,,,,,,emter,etmer,EMTER,TLNW,z,7991,2020-11-05_16h10.40.792,ColomboPrimingTaskC,2020.1.2,MacIntel,60,,,z,1,0.71501,0,141,141,99,1,,,,,,,,
,,,,,,,,,,,,privary,privony,PRIVARY,RLNW,z,7991,2020-11-05_16h10.40.792,ColomboPrimingTaskC,2020.1.2,MacIntel,60,,,z,1,0.86804,0,142,142,121,1,,,,,,,,
,,,,,,,,,,,,asbrunaut,absrunaut,ASBRUNAUT,TLNW,z,7991,2020-11-05_16h10.40.792,ColomboPrimingTaskC,2020.1.2,MacIntel,60,,,z,1,0.88176,0,143,143,80,1,,,,,,,,
,,,,,,,,,,,,mirtioned,mitrioned,MIRTIONED,TLNW,z,7991,2020-11-05_16h10.40.792,ColomboPrimingTaskC,2020.1.2,MacIntel,60,,,z,1,2.11976,0,144,144,113,1,,,,,,,,
,,,,,,,,,,,,canivan,canvian,CANIVAN,TLNW,z,7991,2020-11-05_16h10.40.792,ColomboPrimingTaskC,2020.1.2,MacIntel,60,,,z,1,0.652385,0,145,145,84,1,,,,,,,,
,,,,,,,,,,,,enezies,eneizes,ENEZIES,TLNW,z,7991,2020-11-05_16h10.40.792,ColomboPrimingTaskC,2020.1.2,MacIntel,60,,,z,1,1.4644,0,146,146,98,1,,,,,,,,
,,,,,,,,,,,,sleeve,slevee,SLEEVE,TL2,m,7991,2020-11-05_16h10.40.792,ColomboPrimingTaskC,2020.1.2,MacIntel,60,,,m,1,2.028745,0,147,147,58,1,,,,,,,,
,,,,,,,,,,,,midute,midtue,MIDUTE,TLNW,z,7991,2020-11-05_16h10.40.792,ColomboPrimingTaskC,2020.1.2,MacIntel,60,,,z,1,1.81605,0,148,148,114,1,,,,,,,,
,,,,,,,,,,,,lopely,lopley,LOPELY,TLNW,z,7991,2020-11-05_16h10.40.792,ColomboPrimingTaskC,2020.1.2,MacIntel,60,,,z,1,2.99758,0,149,149,111,1,,,,,,,,
,,,,,,,,,,,,birthday,banthday,BIRTHDAY,RL1,m,7991,2020-11-05_16h10.40.792,ColomboPrimingTaskC,2020.1.2,MacIntel,60,,,m,1,0.96399,0,150,150,6,1,,,,,,,,
,,,,,,,,,,,,environment,embironment,ENVIRONMENT,RL1,m,7991,2020-11-05_16h10.40.792,ColomboPrimingTaskC,2020.1.2,MacIntel,60,,,m,1,1.03164,0,151,151,16,1,,,,,,,,
,,,,,,,,,,,,believe,butieve,BELIEVE,RL1,m,7991,2020-11-05_16h10.40.792,ColomboPrimingTaskC,2020.1.2,MacIntel,60,,,m,1,0.61448,0,152,152,5,1,,,,,,,,
,,,,,,,,,,,,clavely,calvely,CLAVELY,TLNW,z,7991,2020-11-05_16h10.40.792,ColomboPrimingTaskC,2020.1.2,MacIntel,60,,,z,1,0.59673,0,153,153,88,1,,,,,,,,
,,,,,,,,,,,,referee,rfeeree,REFEREE,TL1,m,7991,2020-11-05_16h10.40.792,ColomboPrimingTaskC,2020.1.2,MacIntel,60,,,m,1,0.564535,0,154,154,52,1,,,,,,,,
,,,,,,,,,,,,forty,fosky,FORTY,RL2,m,7991,2020-11-05_16h10.40.792,ColomboPrimingTaskC,2020.1.2,MacIntel,60,,,m,1,0.711135,0,155,155,21,1,,,,,,,,
,,,,,,,,,,,,,,,,,7991,2020-11-05_16h10.40.792,ColomboPrimingTaskC,2020.1.2,MacIntel,60,,,,,,,,,,,space,15.675995, today,space,13.77544, how about we just watch,return,1.177005
