Space1.keys,Space1.rt,Space2.keys,Space2.rt,key_resp.keys,key_resp.corr,key_resp.rt,Practice_loop.thisRepN,Practice_loop.thisTrialN,Practice_loop.thisN,Practice_loop.thisIndex,Practice_loop.ran,Target1,Prime,Target2,Type,CorrAns,Participants I.D.,date,expName,psychopyVersion,OS,frameRate,Space3.keys,Space3.rt,key_resp_2.keys,key_resp_2.corr,key_resp_2.rt,trials.thisRepN,trials.thisTrialN,trials.thisN,trials.thisIndex,trials.ran,key_resp_3.keys,key_resp_3.rt,typedWord,key_resp_4.keys,key_resp_4.rt,typedWord2,key_resp_5.keys,key_resp_5.rt
space,2.295,space,19.158,m,1,4.497,0,0,0,7,1,nursery,nuftery,NURSERY,WRL,m,9744,2020-08-05_11h21.47.804,ColomboPrimingTaskC,2020.1.2,MacIntel,60,,,,,,,,,,,,,,,,,,
,,,,m,1,1.847,0,1,1,8,1,picture,pimrure,PICTURE,WRL,m,9744,2020-08-05_11h21.47.804,ColomboPrimingTaskC,2020.1.2,MacIntel,60,,,,,,,,,,,,,,,,,,
,,,,m,0,2.181,0,2,2,19,1,bacoon,barkon,BACOON,NWRL,z,9744,2020-08-05_11h21.47.804,ColomboPrimingTaskC,2020.1.2,MacIntel,60,,,,,,,,,,,,,,,,,,
,,,,m,1,1.6,0,3,3,10,1,twitter,twitofr,TWITTER,WRL,m,9744,2020-08-05_11h21.47.804,ColomboPrimingTaskC,2020.1.2,MacIntel,60,,,,,,,,,,,,,,,,,,
,,,,z,0,2.112,0,4,4,0,1,coral,croal,CORAL,WTL,m,9744,2020-08-05_11h21.47.804,ColomboPrimingTaskC,2020.1.2,MacIntel,60,,,,,,,,,,,,,,,,,,
,,,,m,0,3.603,0,5,5,21,1,campet,cantet,CAMPET,NWRL,z,9744,2020-08-05_11h21.47.804,ColomboPrimingTaskC,2020.1.2,MacIntel,60,,,,,,,,,,,,,,,,,,
,,,,m,1,1.134,0,6,6,4,1,laundry,laudnry,LAUNDRY,WTL,m,9744,2020-08-05_11h21.47.804,ColomboPrimingTaskC,2020.1.2,MacIntel,60,,,,,,,,,,,,,,,,,,
,,,,z,1,1.564,0,7,7,20,1,bubbfes,buddfes,BUBBFES,NWRL,z,9744,2020-08-05_11h21.47.804,ColomboPrimingTaskC,2020.1.2,MacIntel,60,,,,,,,,,,,,,,,,,,
,,,,z,1,1.829,0,8,8,13,1,cobcert,cocbert,COBCERT,NWTL,z,9744,2020-08-05_11h21.47.804,ColomboPrimingTaskC,2020.1.2,MacIntel,60,,,,,,,,,,,,,,,,,,
,,,,m,1,1.815,0,9,9,5,1,library,lirbary,LIBRARY,WTL,m,9744,2020-08-05_11h21.47.804,ColomboPrimingTaskC,2020.1.2,MacIntel,60,,,,,,,,,,,,,,,,,,
,,,,z,1,1.43,0,10,10,16,1,clirate,crilate,CLIRATE,NWTL,z,9744,2020-08-05_11h21.47.804,ColomboPrimingTaskC,2020.1.2,MacIntel,60,,,,,,,,,,,,,,,,,,
,,,,z,1,1.162,0,11,11,12,1,codfort,cofdort,CODFORT,NWTL,z,9744,2020-08-05_11h21.47.804,ColomboPrimingTaskC,2020.1.2,MacIntel,60,,,,,,,,,,,,,,,,,,
,,,,z,1,1.797,0,12,12,23,1,cnipper,crupper,CNIPPER,NWRL,z,9744,2020-08-05_11h21.47.804,ColomboPrimingTaskC,2020.1.2,MacIntel,60,,,,,,,,,,,,,,,,,,
,,,,m,1,2.128,0,13,13,2,1,festival,fetsival,FESTIVAL,WTL,m,9744,2020-08-05_11h21.47.804,ColomboPrimingTaskC,2020.1.2,MacIntel,60,,,,,,,,,,,,,,,,,,
,,,,z,1,1.364,0,14,14,17,1,flech,felch,FLECH,NWTL,z,9744,2020-08-05_11h21.47.804,ColomboPrimingTaskC,2020.1.2,MacIntel,60,,,,,,,,,,,,,,,,,,
,,,,m,1,1.262,0,15,15,3,1,fifty,fitfy,FIFTY,WTL,m,9744,2020-08-05_11h21.47.804,ColomboPrimingTaskC,2020.1.2,MacIntel,60,,,,,,,,,,,,,,,,,,
,,,,z,0,1.212,0,16,16,11,1,violin,viprin,VIOLIN,WRL,m,9744,2020-08-05_11h21.47.804,ColomboPrimingTaskC,2020.1.2,MacIntel,60,,,,,,,,,,,,,,,,,,
,,,,z,1,2.729,0,17,17,14,1,dinital,ditinal,DINITAL,NWTL,z,9744,2020-08-05_11h21.47.804,ColomboPrimingTaskC,2020.1.2,MacIntel,60,,,,,,,,,,,,,,,,,,
,,,,z,1,1.629,0,18,18,15,1,etephant,etpheant,ETEPHANT,NWTL,z,9744,2020-08-05_11h21.47.804,ColomboPrimingTaskC,2020.1.2,MacIntel,60,,,,,,,,,,,,,,,,,,
,,,,z,0,3.184,0,19,19,9,1,parcel,pafbel,PARCEL,WRL,m,9744,2020-08-05_11h21.47.804,ColomboPrimingTaskC,2020.1.2,MacIntel,60,,,,,,,,,,,,,,,,,,
,,,,z,1,1.733,0,20,20,22,1,chfistmas,chrustmas,CHFISTMAS,NWRL,z,9744,2020-08-05_11h21.47.804,ColomboPrimingTaskC,2020.1.2,MacIntel,60,,,,,,,,,,,,,,,,,,
,,,,z,0,2.252,0,21,21,6,1,monopoly,mogomoly,MONOPOLY,WRL,m,9744,2020-08-05_11h21.47.804,ColomboPrimingTaskC,2020.1.2,MacIntel,60,,,,,,,,,,,,,,,,,,
,,,,z,0,1.613,0,22,22,1,1,elderflower,elferdower,ELDERFLOWER,WTL,m,9744,2020-08-05_11h21.47.804,ColomboPrimingTaskC,2020.1.2,MacIntel,60,,,,,,,,,,,,,,,,,,
,,,,z,1,1.078,0,23,23,18,1,alacus,afogus,ALACUS,NWRL,z,9744,2020-08-05_11h21.47.804,ColomboPrimingTaskC,2020.1.2,MacIntel,60,,,,,,,,,,,,,,,,,,
,,,,,,,,,,,,swallow,swalolw,SWALLOW,TL2,m,9744,2020-08-05_11h21.47.804,ColomboPrimingTaskC,2020.1.2,MacIntel,60,space,49.612,m,1,1.012,0,0,0,69,1,,,,,,,,
,,,,,,,,,,,,thirns,thowns,THIRNS,RLNW,z,9744,2020-08-05_11h21.47.804,ColomboPrimingTaskC,2020.1.2,MacIntel,60,,,z,1,1.968,0,1,1,148,1,,,,,,,,
,,,,,,,,,,,,flazer,falzer,FLAZER,TLNW,z,9744,2020-08-05_11h21.47.804,ColomboPrimingTaskC,2020.1.2,MacIntel,60,,,m,0,2.064,0,2,2,102,1,,,,,,,,
,,,,,,,,,,,,pavement,pvaement,PAVEMENT,TL1,m,9744,2020-08-05_11h21.47.804,ColomboPrimingTaskC,2020.1.2,MacIntel,60,,,m,1,3.496,0,3,3,42,1,,,,,,,,
,,,,,,,,,,,,spailt,sparft,SPAILT,RLNW,z,9744,2020-08-05_11h21.47.804,ColomboPrimingTaskC,2020.1.2,MacIntel,60,,,z,1,1.513,0,4,4,133,1,,,,,,,,
,,,,,,,,,,,,troasure,tronture,TROASURE,RLNW,z,9744,2020-08-05_11h21.47.804,ColomboPrimingTaskC,2020.1.2,MacIntel,60,,,z,1,0.898,0,5,5,146,1,,,,,,,,
,,,,,,,,,,,,callage,callgae,CALLAGE,TLNW,z,9744,2020-08-05_11h21.47.804,ColomboPrimingTaskC,2020.1.2,MacIntel,60,,,m,0,2.847,0,6,6,83,1,,,,,,,,
,,,,,,,,,,,,canivan,canvian,CANIVAN,TLNW,z,9744,2020-08-05_11h21.47.804,ColomboPrimingTaskC,2020.1.2,MacIntel,60,,,z,1,2.048,0,7,7,84,1,,,,,,,,
,,,,,,,,,,,,renorded,renaided,RENORDED,RLNW,z,9744,2020-08-05_11h21.47.804,ColomboPrimingTaskC,2020.1.2,MacIntel,60,,,,0,,0,8,8,124,1,,,,,,,,
,,,,,,,,,,,,penguin,pneguin,PENGUIN,TL1,m,9744,2020-08-05_11h21.47.804,ColomboPrimingTaskC,2020.1.2,MacIntel,60,,,z,0,1.232,0,9,9,43,1,,,,,,,,
,,,,,,,,,,,,basket,binket,BASKET,RL1,m,9744,2020-08-05_11h21.47.804,ColomboPrimingTaskC,2020.1.2,MacIntel,60,,,m,1,1.885,0,10,10,4,1,,,,,,,,
,,,,,,,,,,,,natural,natumel,NATURAL,RL2,m,9744,2020-08-05_11h21.47.804,ColomboPrimingTaskC,2020.1.2,MacIntel,60,,,m,1,0.903,0,11,11,37,1,,,,,,,,
,,,,,,,,,,,,privary,privony,PRIVARY,RLNW,z,9744,2020-08-05_11h21.47.804,ColomboPrimingTaskC,2020.1.2,MacIntel,60,,,m,0,1.449,0,12,12,121,1,,,,,,,,
,,,,,,,,,,,,enezies,eneizes,ENEZIES,TLNW,z,9744,2020-08-05_11h21.47.804,ColomboPrimingTaskC,2020.1.2,MacIntel,60,,,z,1,1.114,0,13,13,98,1,,,,,,,,
,,,,,,,,,,,,scraff,stoaff,SCRAFF,RLNW,z,9744,2020-08-05_11h21.47.804,ColomboPrimingTaskC,2020.1.2,MacIntel,60,,,m,0,1.115,0,14,14,128,1,,,,,,,,
,,,,,,,,,,,,match,mansh,MATCH,RL2,m,9744,2020-08-05_11h21.47.804,ColomboPrimingTaskC,2020.1.2,MacIntel,60,,,m,1,0.713,0,15,15,35,1,,,,,,,,
,,,,,,,,,,,,leopard,leopond,LEOPARD,RL2,m,9744,2020-08-05_11h21.47.804,ColomboPrimingTaskC,2020.1.2,MacIntel,60,,,z,0,1.398,0,16,16,32,1,,,,,,,,
,,,,,,,,,,,,plain,palin,PLAIN,TL1,m,9744,2020-08-05_11h21.47.804,ColomboPrimingTaskC,2020.1.2,MacIntel,60,,,m,1,1.35,0,17,17,46,1,,,,,,,,
,,,,,,,,,,,,tourist,toursit,TOURIST,TL2,m,9744,2020-08-05_11h21.47.804,ColomboPrimingTaskC,2020.1.2,MacIntel,60,,,m,1,0.751,0,18,18,72,1,,,,,,,,
,,,,,,,,,,,,dimotaurs,diomtaurs,DIMOTAURS,TLNW,z,9744,2020-08-05_11h21.47.804,ColomboPrimingTaskC,2020.1.2,MacIntel,60,,,z,1,2.017,0,19,19,94,1,,,,,,,,
,,,,,,,,,,,,thoatre,thoikre,THOATRE,RLNW,z,9744,2020-08-05_11h21.47.804,ColomboPrimingTaskC,2020.1.2,MacIntel,60,,,m,0,3.179,0,20,20,147,1,,,,,,,,
,,,,,,,,,,,,twotched,tartched,TWOTCHED,RLNW,z,9744,2020-08-05_11h21.47.804,ColomboPrimingTaskC,2020.1.2,MacIntel,60,,,z,1,2.08,0,21,21,151,1,,,,,,,,
,,,,,,,,,,,,yowned,yoazed,YOWNED,RLNW,z,9744,2020-08-05_11h21.47.804,ColomboPrimingTaskC,2020.1.2,MacIntel,60,,,z,1,1.346,0,22,22,155,1,,,,,,,,
,,,,,,,,,,,,skiffed,skiftad,SKIFFED,RLNW,z,9744,2020-08-05_11h21.47.804,ColomboPrimingTaskC,2020.1.2,MacIntel,60,,,z,1,2.249,0,23,23,130,1,,,,,,,,
,,,,,,,,,,,,lopely,lopley,LOPELY,TLNW,z,9744,2020-08-05_11h21.47.804,ColomboPrimingTaskC,2020.1.2,MacIntel,60,,,z,1,1.397,0,24,24,111,1,,,,,,,,
,,,,,,,,,,,,forest,forict,FOREST,RL2,m,9744,2020-08-05_11h21.47.804,ColomboPrimingTaskC,2020.1.2,MacIntel,60,,,m,1,1.2,0,25,25,20,1,,,,,,,,
,,,,,,,,,,,,influence,influorce,INFLUENCE,RL2,m,9744,2020-08-05_11h21.47.804,ColomboPrimingTaskC,2020.1.2,MacIntel,60,,,m,1,2.362,0,26,26,28,1,,,,,,,,
,,,,,,,,,,,,robber,rbober,ROBBER,TL1,m,9744,2020-08-05_11h21.47.804,ColomboPrimingTaskC,2020.1.2,MacIntel,60,,,m,1,1.634,0,27,27,54,1,,,,,,,,
,,,,,,,,,,,,rolief,rolalf,ROLIEF,RLNW,z,9744,2020-08-05_11h21.47.804,ColomboPrimingTaskC,2020.1.2,MacIntel,60,,,z,1,1.482,0,28,28,125,1,,,,,,,,
,,,,,,,,,,,,wilked,winted,WILKED,RLNW,z,9744,2020-08-05_11h21.47.804,ColomboPrimingTaskC,2020.1.2,MacIntel,60,,,m,0,1.182,0,29,29,152,1,,,,,,,,
,,,,,,,,,,,,pevuliar,panuliar,PEVULIAR,RLNW,z,9744,2020-08-05_11h21.47.804,ColomboPrimingTaskC,2020.1.2,MacIntel,60,,,z,1,1.71,0,30,30,119,1,,,,,,,,
,,,,,,,,,,,,biscuit,borcuit,BISCUIT,RL1,m,9744,2020-08-05_11h21.47.804,ColomboPrimingTaskC,2020.1.2,MacIntel,60,,,z,0,1.697,0,31,31,7,1,,,,,,,,
,,,,,,,,,,,,hibernate,hibernole,HIBERNATE,RL2,m,9744,2020-08-05_11h21.47.804,ColomboPrimingTaskC,2020.1.2,MacIntel,60,,,z,0,1.6,0,32,32,24,1,,,,,,,,
,,,,,,,,,,,,woary,wonvy,WOARY,RLNW,z,9744,2020-08-05_11h21.47.804,ColomboPrimingTaskC,2020.1.2,MacIntel,60,,,z,1,1.163,0,33,33,153,1,,,,,,,,
,,,,,,,,,,,,around,avaund,AROUND,RL1,m,9744,2020-08-05_11h21.47.804,ColomboPrimingTaskC,2020.1.2,MacIntel,60,,,m,1,0.912,0,34,34,2,1,,,,,,,,
,,,,,,,,,,,,trapped,trapepd,TRAPPED,TL2,m,9744,2020-08-05_11h21.47.804,ColomboPrimingTaskC,2020.1.2,MacIntel,60,,,m,1,1.745,0,35,35,73,1,,,,,,,,
,,,,,,,,,,,,story,stroy,STORY,TL2,m,9744,2020-08-05_11h21.47.804,ColomboPrimingTaskC,2020.1.2,MacIntel,60,,,m,1,1.149,0,36,36,66,1,,,,,,,,
,,,,,,,,,,,,orchestra,orchesdna,ORCHESTRA,RL2,m,9744,2020-08-05_11h21.47.804,ColomboPrimingTaskC,2020.1.2,MacIntel,60,,,z,0,1.468,0,37,37,38,1,,,,,,,,
,,,,,,,,,,,,knorn,konrn,KNORN,TLNW,z,9744,2020-08-05_11h21.47.804,ColomboPrimingTaskC,2020.1.2,MacIntel,60,,,z,1,3.354,0,38,38,109,1,,,,,,,,
,,,,,,,,,,,,burning,bozning,BURNING,RL1,m,9744,2020-08-05_11h21.47.804,ColomboPrimingTaskC,2020.1.2,MacIntel,60,,,m,1,2.535,0,39,39,9,1,,,,,,,,
,,,,,,,,,,,,onerall,onuvall,ONERALL,RLNW,z,9744,2020-08-05_11h21.47.804,ColomboPrimingTaskC,2020.1.2,MacIntel,60,,,z,1,2.421,0,40,40,117,1,,,,,,,,
,,,,,,,,,,,,proffed,pauffed,PROFFED,RLNW,z,9744,2020-08-05_11h21.47.804,ColomboPrimingTaskC,2020.1.2,MacIntel,60,,,z,1,2.57,0,41,41,122,1,,,,,,,,
,,,,,,,,,,,,markles,marlkes,MARKLES,TLNW,z,9744,2020-08-05_11h21.47.804,ColomboPrimingTaskC,2020.1.2,MacIntel,60,,,z,1,2.146,0,42,42,112,1,,,,,,,,
,,,,,,,,,,,,kitchen,kitckon,KITCHEN,RL2,m,9744,2020-08-05_11h21.47.804,ColomboPrimingTaskC,2020.1.2,MacIntel,60,,,m,1,0.829,0,43,43,30,1,,,,,,,,
,,,,,,,,,,,,winner,winenr,WINNER,TL2,m,9744,2020-08-05_11h21.47.804,ColomboPrimingTaskC,2020.1.2,MacIntel,60,,,m,1,0.898,0,44,44,76,1,,,,,,,,
,,,,,,,,,,,,stipping,stipporg,STIPPING,RLNW,z,9744,2020-08-05_11h21.47.804,ColomboPrimingTaskC,2020.1.2,MacIntel,60,,,z,1,1.312,0,45,45,140,1,,,,,,,,
,,,,,,,,,,,,crishing,cirshing,CRISHING,TLNW,z,9744,2020-08-05_11h21.47.804,ColomboPrimingTaskC,2020.1.2,MacIntel,60,,,m,0,1.235,0,46,46,90,1,,,,,,,,
,,,,,,,,,,,,hoafe,hofae,HOAFE,TLNW,z,9744,2020-08-05_11h21.47.804,ColomboPrimingTaskC,2020.1.2,MacIntel,60,,,z,1,1.7,0,47,47,107,1,,,,,,,,
,,,,,,,,,,,,plastic,palstic,PLASTIC,TL1,m,9744,2020-08-05_11h21.47.804,ColomboPrimingTaskC,2020.1.2,MacIntel,60,,,m,1,1.201,0,48,48,47,1,,,,,,,,
,,,,,,,,,,,,entry,espry,ENTRY,RL1,m,9744,2020-08-05_11h21.47.804,ColomboPrimingTaskC,2020.1.2,MacIntel,60,,,m,1,1.081,0,49,49,15,1,,,,,,,,
,,,,,,,,,,,,blanket,bronket,BLANKET,RL1,m,9744,2020-08-05_11h21.47.804,ColomboPrimingTaskC,2020.1.2,MacIntel,60,,,m,1,0.947,0,50,50,8,1,,,,,,,,
,,,,,,,,,,,,dentist,durtist,DENTIST,RL1,m,9744,2020-08-05_11h21.47.804,ColomboPrimingTaskC,2020.1.2,MacIntel,60,,,m,1,1.066,0,51,51,13,1,,,,,,,,
,,,,,,,,,,,,forty,fosky,FORTY,RL2,m,9744,2020-08-05_11h21.47.804,ColomboPrimingTaskC,2020.1.2,MacIntel,60,,,m,1,2.316,0,52,52,21,1,,,,,,,,
,,,,,,,,,,,,vegetable,vegetalbe,VEGETABLE,TL2,m,9744,2020-08-05_11h21.47.804,ColomboPrimingTaskC,2020.1.2,MacIntel,60,,,m,1,2.299,0,53,53,74,1,,,,,,,,
,,,,,,,,,,,,potato,ptoato,POTATO,TL1,m,9744,2020-08-05_11h21.47.804,ColomboPrimingTaskC,2020.1.2,MacIntel,60,,,m,1,0.747,0,54,54,48,1,,,,,,,,
,,,,,,,,,,,,sturfish,stonfish,STURFISH,RLNW,z,9744,2020-08-05_11h21.47.804,ColomboPrimingTaskC,2020.1.2,MacIntel,60,,,m,0,2.012,0,55,55,139,1,,,,,,,,
,,,,,,,,,,,,niffling,nilffing,NIFFLING,TLNW,z,9744,2020-08-05_11h21.47.804,ColomboPrimingTaskC,2020.1.2,MacIntel,60,,,z,1,1.785,0,56,56,116,1,,,,,,,,
,,,,,,,,,,,,rolin,rofan,ROLIN,RLNW,z,9744,2020-08-05_11h21.47.804,ColomboPrimingTaskC,2020.1.2,MacIntel,60,,,z,1,1.696,0,57,57,126,1,,,,,,,,
,,,,,,,,,,,,asbrunaut,absrunaut,ASBRUNAUT,TLNW,z,9744,2020-08-05_11h21.47.804,ColomboPrimingTaskC,2020.1.2,MacIntel,60,,,z,1,2.083,0,58,58,80,1,,,,,,,,
,,,,,,,,,,,,drink,dwonk,DRINK,RL1,m,9744,2020-08-05_11h21.47.804,ColomboPrimingTaskC,2020.1.2,MacIntel,60,,,m,1,0.828,0,59,59,14,1,,,,,,,,
,,,,,,,,,,,,standust,stalkust,STANDUST,RLNW,z,9744,2020-08-05_11h21.47.804,ColomboPrimingTaskC,2020.1.2,MacIntel,60,,,m,0,2.284,0,60,60,138,1,,,,,,,,
,,,,,,,,,,,,hotel,hopal,HOTEL,RL2,m,9744,2020-08-05_11h21.47.804,ColomboPrimingTaskC,2020.1.2,MacIntel,60,,,m,1,0.711,0,61,61,27,1,,,,,,,,
,,,,,,,,,,,,swump,scomp,SWUMP,RLNW,z,9744,2020-08-05_11h21.47.804,ColomboPrimingTaskC,2020.1.2,MacIntel,60,,,z,1,0.967,0,62,62,144,1,,,,,,,,
,,,,,,,,,,,,sunset,sunest,SUNSET,TL2,m,9744,2020-08-05_11h21.47.804,ColomboPrimingTaskC,2020.1.2,MacIntel,60,,,m,1,1.148,0,63,63,68,1,,,,,,,,
,,,,,,,,,,,,alphabet,anthabet,ALPHABET,RL1,m,9744,2020-08-05_11h21.47.804,ColomboPrimingTaskC,2020.1.2,MacIntel,60,,,z,0,0.927,0,64,64,1,1,,,,,,,,
,,,,,,,,,,,,roinwater,raunwater,ROINWATER,RLNW,z,9744,2020-08-05_11h21.47.804,ColomboPrimingTaskC,2020.1.2,MacIntel,60,,,m,0,2.927,0,65,65,123,1,,,,,,,,
,,,,,,,,,,,,spear,spaer,SPEAR,TL2,m,9744,2020-08-05_11h21.47.804,ColomboPrimingTaskC,2020.1.2,MacIntel,60,,,m,1,1.447,0,66,66,62,1,,,,,,,,
,,,,,,,,,,,,esferiment,efseriment,ESFERIMENT,TLNW,z,9744,2020-08-05_11h21.47.804,ColomboPrimingTaskC,2020.1.2,MacIntel,60,,,m,0,2.082,0,67,67,100,1,,,,,,,,
,,,,,,,,,,,,petrol,pterol,PETROL,TL1,m,9744,2020-08-05_11h21.47.804,ColomboPrimingTaskC,2020.1.2,MacIntel,60,,,m,1,2.335,0,68,68,44,1,,,,,,,,
,,,,,,,,,,,,child,crald,CHILD,RL1,m,9744,2020-08-05_11h21.47.804,ColomboPrimingTaskC,2020.1.2,MacIntel,60,,,m,1,0.679,0,69,69,12,1,,,,,,,,
,,,,,,,,,,,,bidger,bdiger,BIDGER,TLNW,z,9744,2020-08-05_11h21.47.804,ColomboPrimingTaskC,2020.1.2,MacIntel,60,,,m,0,0.829,0,70,70,81,1,,,,,,,,
,,,,,,,,,,,,thought,thouhgt,THOUGHT,TL2,m,9744,2020-08-05_11h21.47.804,ColomboPrimingTaskC,2020.1.2,MacIntel,60,,,m,1,0.931,0,71,71,71,1,,,,,,,,
,,,,,,,,,,,,holiday,holitoy,HOLIDAY,RL2,m,9744,2020-08-05_11h21.47.804,ColomboPrimingTaskC,2020.1.2,MacIntel,60,,,m,1,0.787,0,72,72,25,1,,,,,,,,
,,,,,,,,,,,,heafs,hefas,HEAFS,TLNW,z,9744,2020-08-05_11h21.47.804,ColomboPrimingTaskC,2020.1.2,MacIntel,60,,,z,1,1.079,0,73,73,106,1,,,,,,,,
,,,,,,,,,,,,dufty,dutfy,DUFTY,TLNW,z,9744,2020-08-05_11h21.47.804,ColomboPrimingTaskC,2020.1.2,MacIntel,60,,,m,0,1.816,0,74,74,97,1,,,,,,,,
,,,,,,,,,,,,skirping,skawping,SKIRPING,RLNW,z,9744,2020-08-05_11h21.47.804,ColomboPrimingTaskC,2020.1.2,MacIntel,60,,,m,0,0.845,0,75,75,131,1,,,,,,,,
,,,,,,,,,,,,referee,rfeeree,REFEREE,TL1,m,9744,2020-08-05_11h21.47.804,ColomboPrimingTaskC,2020.1.2,MacIntel,60,,,m,1,4.115,0,76,76,52,1,,,,,,,,
,,,,,,,,,,,,crunphy,curnphy,CRUNPHY,TLNW,z,9744,2020-08-05_11h21.47.804,ColomboPrimingTaskC,2020.1.2,MacIntel,60,,,z,1,1.237,0,77,77,92,1,,,,,,,,
,,,,,,,,,,,,following,farlowing,FOLLOWING,RL1,m,9744,2020-08-05_11h21.47.804,ColomboPrimingTaskC,2020.1.2,MacIntel,60,,,z,0,0.762,0,78,78,18,1,,,,,,,,
,,,,,,,,,,,,tomay,tovoy,TOMAY,RLNW,z,9744,2020-08-05_11h21.47.804,ColomboPrimingTaskC,2020.1.2,MacIntel,60,,,z,1,1.084,0,79,79,149,1,,,,,,,,
,,,,,,,,,,,,talking,talknig,TALKING,TL2,m,9744,2020-08-05_11h21.47.804,ColomboPrimingTaskC,2020.1.2,MacIntel,60,,,m,1,0.933,0,80,80,70,1,,,,,,,,
,,,,,,,,,,,,print,pirnt,PRINT,TL1,m,9744,2020-08-05_11h21.47.804,ColomboPrimingTaskC,2020.1.2,MacIntel,60,,,m,1,0.797,0,81,81,51,1,,,,,,,,
,,,,,,,,,,,,instant,instort,INSTANT,RL2,m,9744,2020-08-05_11h21.47.804,ColomboPrimingTaskC,2020.1.2,MacIntel,60,,,m,1,0.902,0,82,82,29,1,,,,,,,,
,,,,,,,,,,,,button,bizton,BUTTON,RL1,m,9744,2020-08-05_11h21.47.804,ColomboPrimingTaskC,2020.1.2,MacIntel,60,,,m,1,1.117,0,83,83,10,1,,,,,,,,
,,,,,,,,,,,,sleeve,slevee,SLEEVE,TL2,m,9744,2020-08-05_11h21.47.804,ColomboPrimingTaskC,2020.1.2,MacIntel,60,,,m,1,0.812,0,84,84,58,1,,,,,,,,
,,,,,,,,,,,,snake,snkae,SNAKE,TL2,m,9744,2020-08-05_11h21.47.804,ColomboPrimingTaskC,2020.1.2,MacIntel,60,,,m,1,0.962,0,85,85,61,1,,,,,,,,
,,,,,,,,,,,,fulore,fluore,FULORE,TLNW,z,9744,2020-08-05_11h21.47.804,ColomboPrimingTaskC,2020.1.2,MacIntel,60,,,z,1,1.198,0,86,86,103,1,,,,,,,,
,,,,,,,,,,,,midute,midtue,MIDUTE,TLNW,z,9744,2020-08-05_11h21.47.804,ColomboPrimingTaskC,2020.1.2,MacIntel,60,,,z,1,1.716,0,87,87,114,1,,,,,,,,
,,,,,,,,,,,,tronch,taunch,TRONCH,RLNW,z,9744,2020-08-05_11h21.47.804,ColomboPrimingTaskC,2020.1.2,MacIntel,60,,,z,1,2.117,0,88,88,150,1,,,,,,,,
,,,,,,,,,,,,dored,droed,DORED,TLNW,z,9744,2020-08-05_11h21.47.804,ColomboPrimingTaskC,2020.1.2,MacIntel,60,,,z,1,1.211,0,89,89,96,1,,,,,,,,
,,,,,,,,,,,,cammied,cammeid,CAMMIED,TLNW,z,9744,2020-08-05_11h21.47.804,ColomboPrimingTaskC,2020.1.2,MacIntel,60,,,z,1,2.816,0,90,90,85,1,,,,,,,,
,,,,,,,,,,,,emter,etmer,EMTER,TLNW,z,9744,2020-08-05_11h21.47.804,ColomboPrimingTaskC,2020.1.2,MacIntel,60,,,z,1,1.203,0,91,91,99,1,,,,,,,,
,,,,,,,,,,,,crockle,corckle,CROCKLE,TLNW,z,9744,2020-08-05_11h21.47.804,ColomboPrimingTaskC,2020.1.2,MacIntel,60,,,z,1,2.867,0,92,92,89,1,,,,,,,,
,,,,,,,,,,,,chupter,chutper,CHUPTER,TLNW,z,9744,2020-08-05_11h21.47.804,ColomboPrimingTaskC,2020.1.2,MacIntel,60,,,z,1,2.433,0,93,93,87,1,,,,,,,,
,,,,,,,,,,,,mirtioned,mitrioned,MIRTIONED,TLNW,z,9744,2020-08-05_11h21.47.804,ColomboPrimingTaskC,2020.1.2,MacIntel,60,,,z,1,2.811,0,94,94,113,1,,,,,,,,
,,,,,,,,,,,,snack,sncak,SNACK,TL2,m,9744,2020-08-05_11h21.47.804,ColomboPrimingTaskC,2020.1.2,MacIntel,60,,,m,1,0.813,0,95,95,60,1,,,,,,,,
,,,,,,,,,,,,foreign,foreasn,FOREIGN,RL2,m,9744,2020-08-05_11h21.47.804,ColomboPrimingTaskC,2020.1.2,MacIntel,60,,,m,1,2.601,0,96,96,19,1,,,,,,,,
,,,,,,,,,,,,scratch,srcatch,SCRATCH,TL1,m,9744,2020-08-05_11h21.47.804,ColomboPrimingTaskC,2020.1.2,MacIntel,60,,,m,1,2.579,0,97,97,56,1,,,,,,,,
,,,,,,,,,,,,pigeon,pgieon,PIGEON,TL1,m,9744,2020-08-05_11h21.47.804,ColomboPrimingTaskC,2020.1.2,MacIntel,60,,,m,1,1.363,0,98,98,45,1,,,,,,,,
,,,,,,,,,,,,stody,spady,STODY,RLNW,z,9744,2020-08-05_11h21.47.804,ColomboPrimingTaskC,2020.1.2,MacIntel,60,,,m,0,1.17,0,99,99,142,1,,,,,,,,
,,,,,,,,,,,,panther,pnather,PANTHER,TL1,m,9744,2020-08-05_11h21.47.804,ColomboPrimingTaskC,2020.1.2,MacIntel,60,,,m,1,2.153,0,100,100,40,1,,,,,,,,
,,,,,,,,,,,,stilks,stofks,STILKS,RLNW,z,9744,2020-08-05_11h21.47.804,ColomboPrimingTaskC,2020.1.2,MacIntel,60,,,z,1,2.516,0,101,101,135,1,,,,,,,,
,,,,,,,,,,,,heaven,heamon,HEAVEN,RL2,m,9744,2020-08-05_11h21.47.804,ColomboPrimingTaskC,2020.1.2,MacIntel,60,,,m,1,1.929,0,102,102,23,1,,,,,,,,
,,,,,,,,,,,,taidor,tordor,TAIDOR,RLNW,z,9744,2020-08-05_11h21.47.804,ColomboPrimingTaskC,2020.1.2,MacIntel,60,,,z,1,0.98,0,103,103,145,1,,,,,,,,
,,,,,,,,,,,,wardrobe,wardrboe,WARDROBE,TL2,m,9744,2020-08-05_11h21.47.804,ColomboPrimingTaskC,2020.1.2,MacIntel,60,,,z,0,2.235,0,104,104,75,1,,,,,,,,
,,,,,,,,,,,,stimp,sturp,STIMP,RLNW,z,9744,2020-08-05_11h21.47.804,ColomboPrimingTaskC,2020.1.2,MacIntel,60,,,z,1,1.184,0,105,105,137,1,,,,,,,,
,,,,,,,,,,,,crims,cirms,CRIMS,TLNW,z,9744,2020-08-05_11h21.47.804,ColomboPrimingTaskC,2020.1.2,MacIntel,60,,,m,0,0.864,0,106,106,91,1,,,,,,,,
,,,,,,,,,,,,stomach,stomcah,STOMACH,TL2,m,9744,2020-08-05_11h21.47.804,ColomboPrimingTaskC,2020.1.2,MacIntel,60,,,m,1,1.03,0,107,107,65,1,,,,,,,,
,,,,,,,,,,,,difentions,difnetions,DIFENTIONS,TLNW,z,9744,2020-08-05_11h21.47.804,ColomboPrimingTaskC,2020.1.2,MacIntel,60,,,m,0,1.236,0,108,108,95,1,,,,,,,,
,,,,,,,,,,,,holmits,homlits,HOLMITS,TLNW,z,9744,2020-08-05_11h21.47.804,ColomboPrimingTaskC,2020.1.2,MacIntel,60,,,m,0,2.32,0,109,109,108,1,,,,,,,,
,,,,,,,,,,,,smooth,smotoh,SMOOTH,TL2,m,9744,2020-08-05_11h21.47.804,ColomboPrimingTaskC,2020.1.2,MacIntel,60,,,m,1,0.578,0,110,110,59,1,,,,,,,,
,,,,,,,,,,,,hospital,hospidol,HOSPITAL,RL2,m,9744,2020-08-05_11h21.47.804,ColomboPrimingTaskC,2020.1.2,MacIntel,60,,,m,1,0.93,0,111,111,26,1,,,,,,,,
,,,,,,,,,,,,grufes,gurfes,GRUFES,TLNW,z,9744,2020-08-05_11h21.47.804,ColomboPrimingTaskC,2020.1.2,MacIntel,60,,,z,1,1.227,0,112,112,105,1,,,,,,,,
,,,,,,,,,,,,summer,sumemr,SUMMER,TL2,m,9744,2020-08-05_11h21.47.804,ColomboPrimingTaskC,2020.1.2,MacIntel,60,,,m,1,0.714,0,113,113,67,1,,,,,,,,
,,,,,,,,,,,,market,mardot,MARKET,RL2,m,9744,2020-08-05_11h21.47.804,ColomboPrimingTaskC,2020.1.2,MacIntel,60,,,m,1,0.712,0,114,114,34,1,,,,,,,,
,,,,,,,,,,,,singer,sniger,SINGER,TL1,m,9744,2020-08-05_11h21.47.804,ColomboPrimingTaskC,2020.1.2,MacIntel,60,,,m,1,0.646,0,115,115,57,1,,,,,,,,
,,,,,,,,,,,,sporks,spilks,SPORKS,RLNW,z,9744,2020-08-05_11h21.47.804,ColomboPrimingTaskC,2020.1.2,MacIntel,60,,,m,0,0.796,0,116,116,132,1,,,,,,,,
,,,,,,,,,,,,prince,pirnce,PRINCE,TL1,m,9744,2020-08-05_11h21.47.804,ColomboPrimingTaskC,2020.1.2,MacIntel,60,,,z,0,1.554,0,117,117,50,1,,,,,,,,
,,,,,,,,,,,,stull,storl,STULL,RLNW,z,9744,2020-08-05_11h21.47.804,ColomboPrimingTaskC,2020.1.2,MacIntel,60,,,z,1,0.879,0,118,118,136,1,,,,,,,,
,,,,,,,,,,,,birthday,banthday,BIRTHDAY,RL1,m,9744,2020-08-05_11h21.47.804,ColomboPrimingTaskC,2020.1.2,MacIntel,60,,,m,1,0.882,0,119,119,6,1,,,,,,,,
,,,,,,,,,,,,meanwhile,meanwhote,MEANWHILE,RL2,m,9744,2020-08-05_11h21.47.804,ColomboPrimingTaskC,2020.1.2,MacIntel,60,,,z,0,1.114,0,120,120,36,1,,,,,,,,
,,,,,,,,,,,,believe,butieve,BELIEVE,RL1,m,9744,2020-08-05_11h21.47.804,ColomboPrimingTaskC,2020.1.2,MacIntel,60,,,m,1,0.949,0,121,121,5,1,,,,,,,,
,,,,,,,,,,,,loarnt,lorant,LOARNT,TLNW,z,9744,2020-08-05_11h21.47.804,ColomboPrimingTaskC,2020.1.2,MacIntel,60,,,z,1,0.88,0,122,122,110,1,,,,,,,,
,,,,,,,,,,,,legend,legord,LEGEND,RL2,m,9744,2020-08-05_11h21.47.804,ColomboPrimingTaskC,2020.1.2,MacIntel,60,,,m,1,1.113,0,123,123,31,1,,,,,,,,
,,,,,,,,,,,,ghost,ghurt,GHOST,RL2,m,9744,2020-08-05_11h21.47.804,ColomboPrimingTaskC,2020.1.2,MacIntel,60,,,m,1,0.598,0,124,124,22,1,,,,,,,,
,,,,,,,,,,,,rimble,rirkle,RIMBLE,RLNW,z,9744,2020-08-05_11h21.47.804,ColomboPrimingTaskC,2020.1.2,MacIntel,60,,,z,1,1.02,0,125,125,127,1,,,,,,,,
,,,,,,,,,,,,playnime,plarmime,PLAYNIME,RLNW,z,9744,2020-08-05_11h21.47.804,ColomboPrimingTaskC,2020.1.2,MacIntel,60,,,m,0,0.896,0,126,126,120,1,,,,,,,,
,,,,,,,,,,,,patient,ptaient,PATIENT,TL1,m,9744,2020-08-05_11h21.47.804,ColomboPrimingTaskC,2020.1.2,MacIntel,60,,,z,0,2.802,0,127,127,41,1,,,,,,,,
,,,,,,,,,,,,spirit,spiirt,SPIRIT,TL2,m,9744,2020-08-05_11h21.47.804,ColomboPrimingTaskC,2020.1.2,MacIntel,60,,,m,1,1.896,0,128,128,63,1,,,,,,,,
,,,,,,,,,,,,apting,atping,APTING,TLNW,z,9744,2020-08-05_11h21.47.804,ColomboPrimingTaskC,2020.1.2,MacIntel,60,,,z,1,2.35,0,129,129,78,1,,,,,,,,
,,,,,,,,,,,,pench,putch,PENCH,RLNW,z,9744,2020-08-05_11h21.47.804,ColomboPrimingTaskC,2020.1.2,MacIntel,60,,,m,0,1.197,0,130,130,118,1,,,,,,,,
,,,,,,,,,,,,outside,otuside,OUTSIDE,TL1,m,9744,2020-08-05_11h21.47.804,ColomboPrimingTaskC,2020.1.2,MacIntel,60,,,m,1,0.703,0,131,131,39,1,,,,,,,,
,,,,,,,,,,,,gniching,ginching,GNICHING,TLNW,z,9744,2020-08-05_11h21.47.804,ColomboPrimingTaskC,2020.1.2,MacIntel,60,,,z,1,2.501,0,132,132,104,1,,,,,,,,
,,,,,,,,,,,,almond,adrond,ALMOND,RL1,m,9744,2020-08-05_11h21.47.804,ColomboPrimingTaskC,2020.1.2,MacIntel,60,,,z,0,1.362,0,133,133,0,1,,,,,,,,
,,,,,,,,,,,,lying,lyorg,LYING,RL2,m,9744,2020-08-05_11h21.47.804,ColomboPrimingTaskC,2020.1.2,MacIntel,60,,,m,1,0.917,0,134,134,33,1,,,,,,,,
,,,,,,,,,,,,statue,staute,STATUE,TL2,m,9744,2020-08-05_11h21.47.804,ColomboPrimingTaskC,2020.1.2,MacIntel,60,,,m,1,0.862,0,135,135,64,1,,,,,,,,
,,,,,,,,,,,,environment,embironment,ENVIRONMENT,RL1,m,9744,2020-08-05_11h21.47.804,ColomboPrimingTaskC,2020.1.2,MacIntel,60,,,m,1,0.965,0,136,136,16,1,,,,,,,,
,,,,,,,,,,,,awful,amdul,AWFUL,RL1,m,9744,2020-08-05_11h21.47.804,ColomboPrimingTaskC,2020.1.2,MacIntel,60,,,m,1,0.968,0,137,137,3,1,,,,,,,,
,,,,,,,,,,,,return,rteurn,RETURN,TL1,m,9744,2020-08-05_11h21.47.804,ColomboPrimingTaskC,2020.1.2,MacIntel,60,,,m,1,0.832,0,138,138,53,1,,,,,,,,
,,,,,,,,,,,,curfomers,crufomers,CURFOMERS,TLNW,z,9744,2020-08-05_11h21.47.804,ColomboPrimingTaskC,2020.1.2,MacIntel,60,,,m,0,2.229,0,139,139,93,1,,,,,,,,
,,,,,,,,,,,,boach,baoch,BOACH,TLNW,z,9744,2020-08-05_11h21.47.804,ColomboPrimingTaskC,2020.1.2,MacIntel,60,,,z,1,2.613,0,140,140,82,1,,,,,,,,
,,,,,,,,,,,,wutch,wursh,WUTCH,RLNW,z,9744,2020-08-05_11h21.47.804,ColomboPrimingTaskC,2020.1.2,MacIntel,60,,,z,1,0.998,0,141,141,154,1,,,,,,,,
,,,,,,,,,,,,round,ruond,ROUND,TL1,m,9744,2020-08-05_11h21.47.804,ColomboPrimingTaskC,2020.1.2,MacIntel,60,,,m,1,0.897,0,142,142,55,1,,,,,,,,
,,,,,,,,,,,,powerful,pwoerful,POWERFUL,TL1,m,9744,2020-08-05_11h21.47.804,ColomboPrimingTaskC,2020.1.2,MacIntel,60,,,m,1,0.685,0,143,143,49,1,,,,,,,,
,,,,,,,,,,,,stoff,skaff,STOFF,RLNW,z,9744,2020-08-05_11h21.47.804,ColomboPrimingTaskC,2020.1.2,MacIntel,60,,,m,0,0.813,0,144,144,134,1,,,,,,,,
,,,,,,,,,,,,spoff,swoff,SPOFF,RLNW,z,9744,2020-08-05_11h21.47.804,ColomboPrimingTaskC,2020.1.2,MacIntel,60,,,m,0,0.502,0,145,145,143,1,,,,,,,,
,,,,,,,,,,,,stoze,skaze,STOZE,RLNW,z,9744,2020-08-05_11h21.47.804,ColomboPrimingTaskC,2020.1.2,MacIntel,60,,,z,1,1.15,0,146,146,141,1,,,,,,,,
,,,,,,,,,,,,winter,winetr,WINTER,TL2,m,9744,2020-08-05_11h21.47.804,ColomboPrimingTaskC,2020.1.2,MacIntel,60,,,m,1,0.618,0,147,147,77,1,,,,,,,,
,,,,,,,,,,,,sibble,sibode,SIBBLE,RLNW,z,9744,2020-08-05_11h21.47.804,ColomboPrimingTaskC,2020.1.2,MacIntel,60,,,z,1,0.75,0,148,148,129,1,,,,,,,,
,,,,,,,,,,,,clavely,calvely,CLAVELY,TLNW,z,9744,2020-08-05_11h21.47.804,ColomboPrimingTaskC,2020.1.2,MacIntel,60,,,z,1,1.779,0,149,149,88,1,,,,,,,,
,,,,,,,,,,,,senved,sevned,SENVED,TLNW,z,9744,2020-08-05_11h21.47.804,ColomboPrimingTaskC,2020.1.2,MacIntel,60,,,m,0,2.128,0,150,150,101,1,,,,,,,,
,,,,,,,,,,,,floats,freats,FLOATS,RL1,m,9744,2020-08-05_11h21.47.804,ColomboPrimingTaskC,2020.1.2,MacIntel,60,,,z,0,1.111,0,151,151,17,1,,,,,,,,
,,,,,,,,,,,,caterpiddar,catrepiddar,CATERPIDDAR,TLNW,z,9744,2020-08-05_11h21.47.804,ColomboPrimingTaskC,2020.1.2,MacIntel,60,,,z,1,3.351,0,152,152,86,1,,,,,,,,
,,,,,,,,,,,,arvument,avrument,ARVUMENT,TLNW,z,9744,2020-08-05_11h21.47.804,ColomboPrimingTaskC,2020.1.2,MacIntel,60,,,z,1,1.814,0,153,153,79,1,,,,,,,,
,,,,,,,,,,,,motter,mtoter,MOTTER,TLNW,z,9744,2020-08-05_11h21.47.804,ColomboPrimingTaskC,2020.1.2,MacIntel,60,,,m,0,1.985,0,154,154,115,1,,,,,,,,
,,,,,,,,,,,,chicken,clecken,CHICKEN,RL1,m,9744,2020-08-05_11h21.47.804,ColomboPrimingTaskC,2020.1.2,MacIntel,60,,,m,1,0.682,0,155,155,11,1,,,,,,,,
,,,,,,,,,,,,,,,,,9744,2020-08-05_11h21.47.804,ColomboPrimingTaskC,2020.1.2,MacIntel,60,,,,,,,,,,,space,43.647,  sunlight,space,143.28, indulge yourself in food all day long,1,0.001
