Space1.keys,Space1.rt,Space2.keys,Space2.rt,key_resp.keys,key_resp.corr,key_resp.rt,Practice_loop.thisRepN,Practice_loop.thisTrialN,Practice_loop.thisN,Practice_loop.thisIndex,Practice_loop.ran,Target1,Prime,Target2,Type,CorrAns,Participant I.D.,date,expName,psychopyVersion,OS,frameRate,Space3.keys,Space3.rt,key_resp_2.keys,key_resp_2.corr,key_resp_2.rt,trials.thisRepN,trials.thisTrialN,trials.thisN,trials.thisIndex,trials.ran,typedWord,typedWord2
space,1.75344,space,3.51918,m,1,0.348365,0,0,0,0,1,coral,croal,CORAL,WTL,m,999,2020-08-19_13h41.39.553,ColomboPrimingTaskA,2020.1.2,MacIntel,60,,,,,,,,,,,,
,,,,m,1,0.333015,0,1,1,10,1,twitter,twitofr,TWITTER,WRL,m,999,2020-08-19_13h41.39.553,ColomboPrimingTaskA,2020.1.2,MacIntel,60,,,,,,,,,,,,
,,,,m,0,0.18562,0,2,2,22,1,chfistmas,chrustmas,CHFISTMAS,NWRL,z,999,2020-08-19_13h41.39.553,ColomboPrimingTaskA,2020.1.2,MacIntel,60,,,,,,,,,,,,
,,,,m,1,0.069745,0,3,3,8,1,picture,pimrure,PICTURE,WRL,m,999,2020-08-19_13h41.39.553,ColomboPrimingTaskA,2020.1.2,MacIntel,60,,,,,,,,,,,,
,,,,m,1,0.088475,0,4,4,1,1,elderflower,elferdower,ELDERFLOWER,WTL,m,999,2020-08-19_13h41.39.553,ColomboPrimingTaskA,2020.1.2,MacIntel,60,,,,,,,,,,,,
,,,,m,0,0.620225,0,5,5,18,1,alacus,afogus,ALACUS,NWRL,z,999,2020-08-19_13h41.39.553,ColomboPrimingTaskA,2020.1.2,MacIntel,60,,,,,,,,,,,,
,,,,m,1,0.43228,0,6,6,4,1,laundry,laudnry,LAUNDRY,WTL,m,999,2020-08-19_13h41.39.553,ColomboPrimingTaskA,2020.1.2,MacIntel,60,,,,,,,,,,,,
,,,,m,0,0.621605,0,7,7,14,1,dinital,ditinal,DINITAL,NWTL,z,999,2020-08-19_13h41.39.553,ColomboPrimingTaskA,2020.1.2,MacIntel,60,,,,,,,,,,,,
,,,,m,1,0.11733,0,8,8,6,1,monopoly,mogomoly,MONOPOLY,WRL,m,999,2020-08-19_13h41.39.553,ColomboPrimingTaskA,2020.1.2,MacIntel,60,,,,,,,,,,,,
,,,,m,1,0.21818,0,9,9,5,1,library,lirbary,LIBRARY,WTL,m,999,2020-08-19_13h41.39.553,ColomboPrimingTaskA,2020.1.2,MacIntel,60,,,,,,,,,,,,
,,,,m,0,0.11084,0,10,10,17,1,flech,felch,FLECH,NWTL,z,999,2020-08-19_13h41.39.553,ColomboPrimingTaskA,2020.1.2,MacIntel,60,,,,,,,,,,,,
,,,,m,1,0.132655,0,11,11,7,1,nursery,nuftery,NURSERY,WRL,m,999,2020-08-19_13h41.39.553,ColomboPrimingTaskA,2020.1.2,MacIntel,60,,,,,,,,,,,,
,,,,m,0,0.19954,0,12,12,19,1,bacoon,barkon,BACOON,NWRL,z,999,2020-08-19_13h41.39.553,ColomboPrimingTaskA,2020.1.2,MacIntel,60,,,,,,,,,,,,
,,,,m,0,0.234825,0,13,13,21,1,campet,cantet,CAMPET,NWRL,z,999,2020-08-19_13h41.39.553,ColomboPrimingTaskA,2020.1.2,MacIntel,60,,,,,,,,,,,,
,,,,m,0,0.168875,0,14,14,16,1,clirate,crilate,CLIRATE,NWTL,z,999,2020-08-19_13h41.39.553,ColomboPrimingTaskA,2020.1.2,MacIntel,60,,,,,,,,,,,,
,,,,m,1,0.018705,0,15,15,2,1,festival,fetsival,FESTIVAL,WTL,m,999,2020-08-19_13h41.39.553,ColomboPrimingTaskA,2020.1.2,MacIntel,60,,,,,,,,,,,,
,,,,m,0,0.00342,0,16,16,23,1,cnipper,crupper,CNIPPER,NWRL,z,999,2020-08-19_13h41.39.553,ColomboPrimingTaskA,2020.1.2,MacIntel,60,,,,,,,,,,,,
,,,,m,0,0.36617,0,17,17,13,1,cobcert,cocbert,COBCERT,NWTL,z,999,2020-08-19_13h41.39.553,ColomboPrimingTaskA,2020.1.2,MacIntel,60,,,,,,,,,,,,
,,,,m,0,0.72005,0,18,18,15,1,etephant,etpheant,ETEPHANT,NWTL,z,999,2020-08-19_13h41.39.553,ColomboPrimingTaskA,2020.1.2,MacIntel,60,,,,,,,,,,,,
,,,,m,0,0.6204,0,19,19,20,1,bubbfes,buddfes,BUBBFES,NWRL,z,999,2020-08-19_13h41.39.553,ColomboPrimingTaskA,2020.1.2,MacIntel,60,,,,,,,,,,,,
,,,,m,1,0.20315,0,20,20,11,1,violin,viprin,VIOLIN,WRL,m,999,2020-08-19_13h41.39.553,ColomboPrimingTaskA,2020.1.2,MacIntel,60,,,,,,,,,,,,
,,,,m,0,0.183,0,21,21,12,1,codfort,cofdort,CODFORT,NWTL,z,999,2020-08-19_13h41.39.553,ColomboPrimingTaskA,2020.1.2,MacIntel,60,,,,,,,,,,,,
,,,,m,1,0.02219,0,22,22,3,1,fifty,fitfy,FIFTY,WTL,m,999,2020-08-19_13h41.39.553,ColomboPrimingTaskA,2020.1.2,MacIntel,60,,,,,,,,,,,,
,,,,m,1,0.199125,0,23,23,9,1,parcel,pafbel,PARCEL,WRL,m,999,2020-08-19_13h41.39.553,ColomboPrimingTaskA,2020.1.2,MacIntel,60,,,,,,,,,,,,
,,,,,,,,,,,,heafs,heils,HEAFS,RLNW,z,999,2020-08-19_13h41.39.553,ColomboPrimingTaskA,2020.1.2,MacIntel,60,space,4.0226,m,0,0.347075,0,0,0,106,1,,
,,,,,,,,,,,,lopely,lopary,LOPELY,RLNW,z,999,2020-08-19_13h41.39.553,ColomboPrimingTaskA,2020.1.2,MacIntel,60,,,m,0,0.166765,0,1,1,111,1,,
,,,,,,,,,,,,swallow,swaldaw,SWALLOW,RL2,m,999,2020-08-19_13h41.39.553,ColomboPrimingTaskA,2020.1.2,MacIntel,60,,,m,1,0.081165,0,2,2,69,1,,
,,,,,,,,,,,,skiffed,skfifed,SKIFFED,TLNW,z,999,2020-08-19_13h41.39.553,ColomboPrimingTaskA,2020.1.2,MacIntel,60,,,m,0,0.34978,0,3,3,130,1,,
,,,,,,,,,,,,tronch,taunch,TRONCH,RLNW,z,999,2020-08-19_13h41.39.553,ColomboPrimingTaskA,2020.1.2,MacIntel,60,,,m,0,0.25641,0,4,4,150,1,,
,,,,,,,,,,,,stoze,skaze,STOZE,RLNW,z,999,2020-08-19_13h41.39.553,ColomboPrimingTaskA,2020.1.2,MacIntel,60,,,m,0,0.08212,0,5,5,141,1,,
,,,,,,,,,,,,gniching,gruching,GNICHING,RLNW,z,999,2020-08-19_13h41.39.553,ColomboPrimingTaskA,2020.1.2,MacIntel,60,,,m,0,0.13414,0,6,6,104,1,,
,,,,,,,,,,,,orchestra,orchesrta,ORCHESTRA,TL2,m,999,2020-08-19_13h41.39.553,ColomboPrimingTaskA,2020.1.2,MacIntel,60,,,m,1,0.192345,0,7,7,38,1,,
,,,,,,,,,,,,winner,winfor,WINNER,RL2,m,999,2020-08-19_13h41.39.553,ColomboPrimingTaskA,2020.1.2,MacIntel,60,,,m,1,0.20145,0,8,8,76,1,,
,,,,,,,,,,,,woary,wonvy,WOARY,RLNW,z,999,2020-08-19_13h41.39.553,ColomboPrimingTaskA,2020.1.2,MacIntel,60,,,m,0,0.354235,0,9,9,153,1,,
,,,,,,,,,,,,callage,callgae,CALLAGE,TLNW,z,999,2020-08-19_13h41.39.553,ColomboPrimingTaskA,2020.1.2,MacIntel,60,,,m,0,0.23692,0,10,10,83,1,,
,,,,,,,,,,,,blanket,balnket,BLANKET,TL1,m,999,2020-08-19_13h41.39.553,ColomboPrimingTaskA,2020.1.2,MacIntel,60,,,m,1,0.065395,0,11,11,8,1,,
,,,,,,,,,,,,floats,folats,FLOATS,TL1,m,999,2020-08-19_13h41.39.553,ColomboPrimingTaskA,2020.1.2,MacIntel,60,,,m,1,0.21712,0,12,12,17,1,,
,,,,,,,,,,,,smooth,smouch,SMOOTH,RL2,m,999,2020-08-19_13h41.39.553,ColomboPrimingTaskA,2020.1.2,MacIntel,60,,,m,1,0.169065,0,13,13,59,1,,
,,,,,,,,,,,,senved,serced,SENVED,RLNW,z,999,2020-08-19_13h41.39.553,ColomboPrimingTaskA,2020.1.2,MacIntel,60,,,m,0,0.1818,0,14,14,101,1,,
,,,,,,,,,,,,wardrobe,wardrile,WARDROBE,RL2,m,999,2020-08-19_13h41.39.553,ColomboPrimingTaskA,2020.1.2,MacIntel,60,,,m,1,0.01845,0,15,15,75,1,,
,,,,,,,,,,,,stomach,stomush,STOMACH,RL2,m,999,2020-08-19_13h41.39.553,ColomboPrimingTaskA,2020.1.2,MacIntel,60,,,m,1,0.282175,0,16,16,65,1,,
,,,,,,,,,,,,almond,amlond,ALMOND,TL1,m,999,2020-08-19_13h41.39.553,ColomboPrimingTaskA,2020.1.2,MacIntel,60,,,m,1,0.034445,0,17,17,0,1,,
,,,,,,,,,,,,dentist,dnetist,DENTIST,TL1,m,999,2020-08-19_13h41.39.553,ColomboPrimingTaskA,2020.1.2,MacIntel,60,,,m,1,0.150525,0,18,18,13,1,,
,,,,,,,,,,,,hospital,hospiatl,HOSPITAL,TL2,m,999,2020-08-19_13h41.39.553,ColomboPrimingTaskA,2020.1.2,MacIntel,60,,,m,1,0.003715,0,19,19,26,1,,
,,,,,,,,,,,,crockle,corckle,CROCKLE,TLNW,z,999,2020-08-19_13h41.39.553,ColomboPrimingTaskA,2020.1.2,MacIntel,60,,,m,0,0.2515,0,20,20,89,1,,
,,,,,,,,,,,,rolin,roiln,ROLIN,TLNW,z,999,2020-08-19_13h41.39.553,ColomboPrimingTaskA,2020.1.2,MacIntel,60,,,m,0,0.001055,0,21,21,126,1,,
,,,,,,,,,,,,privary,privray,PRIVARY,TLNW,z,999,2020-08-19_13h41.39.553,ColomboPrimingTaskA,2020.1.2,MacIntel,60,,,m,0,0.147765,0,22,22,121,1,,
,,,,,,,,,,,,sibble,siblbe,SIBBLE,TLNW,z,999,2020-08-19_13h41.39.553,ColomboPrimingTaskA,2020.1.2,MacIntel,60,,,m,0,0.117725,0,23,23,129,1,,
,,,,,,,,,,,,sporks,sproks,SPORKS,TLNW,z,999,2020-08-19_13h41.39.553,ColomboPrimingTaskA,2020.1.2,MacIntel,60,,,m,0,0.332945,0,24,24,132,1,,
,,,,,,,,,,,,singer,sarger,SINGER,RL1,m,999,2020-08-19_13h41.39.553,ColomboPrimingTaskA,2020.1.2,MacIntel,60,,,m,1,0.18537,0,25,25,57,1,,
,,,,,,,,,,,,roinwater,rionwater,ROINWATER,TLNW,z,999,2020-08-19_13h41.39.553,ColomboPrimingTaskA,2020.1.2,MacIntel,60,,,m,0,0.19811,0,26,26,123,1,,
,,,,,,,,,,,,meanwhile,meanwhlie,MEANWHILE,TL2,m,999,2020-08-19_13h41.39.553,ColomboPrimingTaskA,2020.1.2,MacIntel,60,,,m,1,0.1003,0,27,27,36,1,,
,,,,,,,,,,,,instant,instnat,INSTANT,TL2,m,999,2020-08-19_13h41.39.553,ColomboPrimingTaskA,2020.1.2,MacIntel,60,,,m,1,0.316615,0,28,28,29,1,,
,,,,,,,,,,,,loarnt,lozint,LOARNT,RLNW,z,999,2020-08-19_13h41.39.553,ColomboPrimingTaskA,2020.1.2,MacIntel,60,,,m,0,0.138285,0,29,29,110,1,,
,,,,,,,,,,,,rolief,roleif,ROLIEF,TLNW,z,999,2020-08-19_13h41.39.553,ColomboPrimingTaskA,2020.1.2,MacIntel,60,,,m,0,0.01782,0,30,30,125,1,,
,,,,,,,,,,,,powerful,panerful,POWERFUL,RL1,m,999,2020-08-19_13h41.39.553,ColomboPrimingTaskA,2020.1.2,MacIntel,60,,,m,1,0.287185,0,31,31,49,1,,
,,,,,,,,,,,,plastic,prostic,PLASTIC,RL1,m,999,2020-08-19_13h41.39.553,ColomboPrimingTaskA,2020.1.2,MacIntel,60,,,m,1,0.26794,0,32,32,47,1,,
,,,,,,,,,,,,drink,dirnk,DRINK,TL1,m,999,2020-08-19_13h41.39.553,ColomboPrimingTaskA,2020.1.2,MacIntel,60,,,m,1,0.30028,0,33,33,14,1,,
,,,,,,,,,,,,skirping,skriping,SKIRPING,TLNW,z,999,2020-08-19_13h41.39.553,ColomboPrimingTaskA,2020.1.2,MacIntel,60,,,m,0,0.867295,0,34,34,131,1,,
,,,,,,,,,,,,snack,snurk,SNACK,RL2,m,999,2020-08-19_13h41.39.553,ColomboPrimingTaskA,2020.1.2,MacIntel,60,,,m,1,1.118415,0,35,35,60,1,,
,,,,,,,,,,,,markles,martnes,MARKLES,RLNW,z,999,2020-08-19_13h41.39.553,ColomboPrimingTaskA,2020.1.2,MacIntel,60,,,m,0,0.42291,0,36,36,112,1,,
,,,,,,,,,,,,midute,midoke,MIDUTE,RLNW,z,999,2020-08-19_13h41.39.553,ColomboPrimingTaskA,2020.1.2,MacIntel,60,,,m,0,0.150035,0,37,37,114,1,,
,,,,,,,,,,,,statue,stadoe,STATUE,RL2,m,999,2020-08-19_13h41.39.553,ColomboPrimingTaskA,2020.1.2,MacIntel,60,,,m,1,0.1171,0,38,38,64,1,,
,,,,,,,,,,,,hibernate,hiberntae,HIBERNATE,TL2,m,999,2020-08-19_13h41.39.553,ColomboPrimingTaskA,2020.1.2,MacIntel,60,,,m,1,0.13487,0,39,39,24,1,,
,,,,,,,,,,,,apting,atping,APTING,TLNW,z,999,2020-08-19_13h41.39.553,ColomboPrimingTaskA,2020.1.2,MacIntel,60,,,m,0,0.49287,0,40,40,78,1,,
,,,,,,,,,,,,spear,spoir,SPEAR,RL2,m,999,2020-08-19_13h41.39.553,ColomboPrimingTaskA,2020.1.2,MacIntel,60,,,m,1,0.351095,0,41,41,62,1,,
,,,,,,,,,,,,knorn,klarn,KNORN,RLNW,z,999,2020-08-19_13h41.39.553,ColomboPrimingTaskA,2020.1.2,MacIntel,60,,,m,0,0.153545,0,42,42,109,1,,
,,,,,,,,,,,,basket,bsaket,BASKET,TL1,m,999,2020-08-19_13h41.39.553,ColomboPrimingTaskA,2020.1.2,MacIntel,60,,,m,1,0.33516,0,43,43,4,1,,
,,,,,,,,,,,,dufty,dulpy,DUFTY,RLNW,z,999,2020-08-19_13h41.39.553,ColomboPrimingTaskA,2020.1.2,MacIntel,60,,,m,0,0.571345,0,44,44,97,1,,
,,,,,,,,,,,,troasure,tronture,TROASURE,RLNW,z,999,2020-08-19_13h41.39.553,ColomboPrimingTaskA,2020.1.2,MacIntel,60,,,m,0,2.98956,0,45,45,146,1,,
,,,,,,,,,,,,playnime,planyime,PLAYNIME,TLNW,z,999,2020-08-19_13h41.39.553,ColomboPrimingTaskA,2020.1.2,MacIntel,60,,,m,0,0.63835,0,46,46,120,1,,
,,,,,,,,,,,,leopard,leoprad,LEOPARD,TL2,m,999,2020-08-19_13h41.39.553,ColomboPrimingTaskA,2020.1.2,MacIntel,60,,,m,1,0.649425,0,47,47,32,1,,
,,,,,,,,,,,,stull,storl,STULL,RLNW,z,999,2020-08-19_13h41.39.553,ColomboPrimingTaskA,2020.1.2,MacIntel,60,,,m,0,0.45343,0,48,48,136,1,,
,,,,,,,,,,,,burning,bruning,BURNING,TL1,m,999,2020-08-19_13h41.39.553,ColomboPrimingTaskA,2020.1.2,MacIntel,60,,,m,1,0.403445,0,49,49,9,1,,
,,,,,,,,,,,,hotel,hoetl,HOTEL,TL2,m,999,2020-08-19_13h41.39.553,ColomboPrimingTaskA,2020.1.2,MacIntel,60,,,m,1,0.656745,0,50,50,27,1,,
,,,,,,,,,,,,sunset,suncot,SUNSET,RL2,m,999,2020-08-19_13h41.39.553,ColomboPrimingTaskA,2020.1.2,MacIntel,60,,,m,1,0.70158,0,51,51,68,1,,
,,,,,,,,,,,,fulore,fitore,FULORE,RLNW,z,999,2020-08-19_13h41.39.553,ColomboPrimingTaskA,2020.1.2,MacIntel,60,,,m,0,0.16763,0,52,52,103,1,,
,,,,,,,,,,,,match,macth,MATCH,TL2,m,999,2020-08-19_13h41.39.553,ColomboPrimingTaskA,2020.1.2,MacIntel,60,,,m,1,0.408075,0,53,53,35,1,,
,,,,,,,,,,,,esferiment,emteriment,ESFERIMENT,RLNW,z,999,2020-08-19_13h41.39.553,ColomboPrimingTaskA,2020.1.2,MacIntel,60,,,m,0,0.26653,0,54,54,100,1,,
,,,,,,,,,,,,enezies,enefoes,ENEZIES,RLNW,z,999,2020-08-19_13h41.39.553,ColomboPrimingTaskA,2020.1.2,MacIntel,60,,,m,0,0.60605,0,55,55,98,1,,
,,,,,,,,,,,,round,reand,ROUND,RL1,m,999,2020-08-19_13h41.39.553,ColomboPrimingTaskA,2020.1.2,MacIntel,60,,,m,1,0.70876,0,56,56,55,1,,
,,,,,,,,,,,,outside,ondside,OUTSIDE,RL1,m,999,2020-08-19_13h41.39.553,ColomboPrimingTaskA,2020.1.2,MacIntel,60,,,m,1,0.05538,0,57,57,39,1,,
,,,,,,,,,,,,dimotaurs,diomtaurs,DIMOTAURS,TLNW,z,999,2020-08-19_13h41.39.553,ColomboPrimingTaskA,2020.1.2,MacIntel,60,,,m,0,0.33687,0,58,58,94,1,,
,,,,,,,,,,,,market,marekt,MARKET,TL2,m,999,2020-08-19_13h41.39.553,ColomboPrimingTaskA,2020.1.2,MacIntel,60,,,m,1,0.4025,0,59,59,34,1,,
,,,,,,,,,,,,around,aorund,AROUND,TL1,m,999,2020-08-19_13h41.39.553,ColomboPrimingTaskA,2020.1.2,MacIntel,60,,,m,1,0.301835,0,60,60,2,1,,
,,,,,,,,,,,,tourist,tourant,TOURIST,RL2,m,999,2020-08-19_13h41.39.553,ColomboPrimingTaskA,2020.1.2,MacIntel,60,,,m,1,0.506475,0,61,61,72,1,,
,,,,,,,,,,,,foreign,foregin,FOREIGN,TL2,m,999,2020-08-19_13h41.39.553,ColomboPrimingTaskA,2020.1.2,MacIntel,60,,,m,1,1.00425,0,62,62,19,1,,
,,,,,,,,,,,,spailt,spalit,SPAILT,TLNW,z,999,2020-08-19_13h41.39.553,ColomboPrimingTaskA,2020.1.2,MacIntel,60,,,m,0,0.66628,0,63,63,133,1,,
,,,,,,,,,,,,legend,legned,LEGEND,TL2,m,999,2020-08-19_13h41.39.553,ColomboPrimingTaskA,2020.1.2,MacIntel,60,,,m,1,0.188785,0,64,64,31,1,,
,,,,,,,,,,,,scraff,srcaff,SCRAFF,TLNW,z,999,2020-08-19_13h41.39.553,ColomboPrimingTaskA,2020.1.2,MacIntel,60,,,m,0,0.250965,0,65,65,128,1,,
,,,,,,,,,,,,sleeve,sleone,SLEEVE,RL2,m,999,2020-08-19_13h41.39.553,ColomboPrimingTaskA,2020.1.2,MacIntel,60,,,m,1,0.78684,0,66,66,58,1,,
,,,,,,,,,,,,birthday,brithday,BIRTHDAY,TL1,m,999,2020-08-19_13h41.39.553,ColomboPrimingTaskA,2020.1.2,MacIntel,60,,,m,1,0.08292,0,67,67,6,1,,
,,,,,,,,,,,,curfomers,crufomers,CURFOMERS,TLNW,z,999,2020-08-19_13h41.39.553,ColomboPrimingTaskA,2020.1.2,MacIntel,60,,,m,0,0.284975,0,68,68,93,1,,
,,,,,,,,,,,,vegetable,vegetance,VEGETABLE,RL2,m,999,2020-08-19_13h41.39.553,ColomboPrimingTaskA,2020.1.2,MacIntel,60,,,m,1,0.1806,0,69,69,74,1,,
,,,,,,,,,,,,canivan,canvian,CANIVAN,TLNW,z,999,2020-08-19_13h41.39.553,ColomboPrimingTaskA,2020.1.2,MacIntel,60,,,m,0,0.192055,0,70,70,84,1,,
,,,,,,,,,,,,thoatre,thoikre,THOATRE,RLNW,z,999,2020-08-19_13h41.39.553,ColomboPrimingTaskA,2020.1.2,MacIntel,60,,,m,0,0.335755,0,71,71,147,1,,
,,,,,,,,,,,,onerall,onreall,ONERALL,TLNW,z,999,2020-08-19_13h41.39.553,ColomboPrimingTaskA,2020.1.2,MacIntel,60,,,m,0,0.03469,0,72,72,117,1,,
,,,,,,,,,,,,hoafe,houte,HOAFE,RLNW,z,999,2020-08-19_13h41.39.553,ColomboPrimingTaskA,2020.1.2,MacIntel,60,,,m,0,0.032725,0,73,73,107,1,,
,,,,,,,,,,,,kitchen,kitcehn,KITCHEN,TL2,m,999,2020-08-19_13h41.39.553,ColomboPrimingTaskA,2020.1.2,MacIntel,60,,,m,1,0.65172,0,74,74,30,1,,
,,,,,,,,,,,,motter,mlater,MOTTER,RLNW,z,999,2020-08-19_13h41.39.553,ColomboPrimingTaskA,2020.1.2,MacIntel,60,,,m,0,0.27563,0,75,75,115,1,,
,,,,,,,,,,,,proffed,porffed,PROFFED,TLNW,z,999,2020-08-19_13h41.39.553,ColomboPrimingTaskA,2020.1.2,MacIntel,60,,,m,0,0.167055,0,76,76,122,1,,
,,,,,,,,,,,,chicken,cihcken,CHICKEN,TL1,m,999,2020-08-19_13h41.39.553,ColomboPrimingTaskA,2020.1.2,MacIntel,60,,,m,1,0.24992,0,77,77,11,1,,
,,,,,,,,,,,,boach,baoch,BOACH,TLNW,z,999,2020-08-19_13h41.39.553,ColomboPrimingTaskA,2020.1.2,MacIntel,60,,,m,0,0.267855,0,78,78,82,1,,
,,,,,,,,,,,,holmits,hofnits,HOLMITS,RLNW,z,999,2020-08-19_13h41.39.553,ColomboPrimingTaskA,2020.1.2,MacIntel,60,,,m,0,0.3985,0,79,79,108,1,,
,,,,,,,,,,,,flazer,fruzer,FLAZER,RLNW,z,999,2020-08-19_13h41.39.553,ColomboPrimingTaskA,2020.1.2,MacIntel,60,,,m,0,0.242775,0,80,80,102,1,,
,,,,,,,,,,,,yowned,yoazed,YOWNED,RLNW,z,999,2020-08-19_13h41.39.553,ColomboPrimingTaskA,2020.1.2,MacIntel,60,,,m,0,0.373125,0,81,81,155,1,,
,,,,,,,,,,,,button,btuton,BUTTON,TL1,m,999,2020-08-19_13h41.39.553,ColomboPrimingTaskA,2020.1.2,MacIntel,60,,,m,1,1.76664,0,82,82,10,1,,
,,,,,,,,,,,,pevuliar,peuvliar,PEVULIAR,TLNW,z,999,2020-08-19_13h41.39.553,ColomboPrimingTaskA,2020.1.2,MacIntel,60,,,m,0,0.4579,0,83,83,119,1,,
,,,,,,,,,,,,winter,winfur,WINTER,RL2,m,999,2020-08-19_13h41.39.553,ColomboPrimingTaskA,2020.1.2,MacIntel,60,,,m,1,0.19985,0,84,84,77,1,,
,,,,,,,,,,,,stimp,sturp,STIMP,RLNW,z,999,2020-08-19_13h41.39.553,ColomboPrimingTaskA,2020.1.2,MacIntel,60,,,m,0,0.531985,0,85,85,137,1,,
,,,,,,,,,,,,renorded,renroded,RENORDED,TLNW,z,999,2020-08-19_13h41.39.553,ColomboPrimingTaskA,2020.1.2,MacIntel,60,,,m,0,0.301225,0,86,86,124,1,,
,,,,,,,,,,,,caterpiddar,catrepiddar,CATERPIDDAR,TLNW,z,999,2020-08-19_13h41.39.553,ColomboPrimingTaskA,2020.1.2,MacIntel,60,,,m,0,0.53215,0,87,87,86,1,,
,,,,,,,,,,,,thought,thourst,THOUGHT,RL2,m,999,2020-08-19_13h41.39.553,ColomboPrimingTaskA,2020.1.2,MacIntel,60,,,m,1,0.21839,0,88,88,71,1,,
,,,,,,,,,,,,clavely,calvely,CLAVELY,TLNW,z,999,2020-08-19_13h41.39.553,ColomboPrimingTaskA,2020.1.2,MacIntel,60,,,m,0,0.48185,0,89,89,88,1,,
,,,,,,,,,,,,wutch,wursh,WUTCH,RLNW,z,999,2020-08-19_13h41.39.553,ColomboPrimingTaskA,2020.1.2,MacIntel,60,,,m,0,0.30859,0,90,90,154,1,,
,,,,,,,,,,,,stody,spady,STODY,RLNW,z,999,2020-08-19_13h41.39.553,ColomboPrimingTaskA,2020.1.2,MacIntel,60,,,m,0,0.76618,0,91,91,142,1,,
,,,,,,,,,,,,penguin,purguin,PENGUIN,RL1,m,999,2020-08-19_13h41.39.553,ColomboPrimingTaskA,2020.1.2,MacIntel,60,,,m,1,0.03457,0,92,92,43,1,,
,,,,,,,,,,,,summer,sumpar,SUMMER,RL2,m,999,2020-08-19_13h41.39.553,ColomboPrimingTaskA,2020.1.2,MacIntel,60,,,m,1,0.67336,0,93,93,67,1,,
,,,,,,,,,,,,forty,fotry,FORTY,TL2,m,999,2020-08-19_13h41.39.553,ColomboPrimingTaskA,2020.1.2,MacIntel,60,,,m,1,0.39778,0,94,94,21,1,,
,,,,,,,,,,,,crishing,cirshing,CRISHING,TLNW,z,999,2020-08-19_13h41.39.553,ColomboPrimingTaskA,2020.1.2,MacIntel,60,,,m,0,0.209945,0,95,95,90,1,,
,,,,,,,,,,,,sturfish,stonfish,STURFISH,RLNW,z,999,2020-08-19_13h41.39.553,ColomboPrimingTaskA,2020.1.2,MacIntel,60,,,m,0,0.382665,0,96,96,139,1,,
,,,,,,,,,,,,taidor,tordor,TAIDOR,RLNW,z,999,2020-08-19_13h41.39.553,ColomboPrimingTaskA,2020.1.2,MacIntel,60,,,m,0,0.318375,0,97,97,145,1,,
,,,,,,,,,,,,prince,plunce,PRINCE,RL1,m,999,2020-08-19_13h41.39.553,ColomboPrimingTaskA,2020.1.2,MacIntel,60,,,m,1,0.18221,0,98,98,50,1,,
,,,,,,,,,,,,stipping,stipporg,STIPPING,RLNW,z,999,2020-08-19_13h41.39.553,ColomboPrimingTaskA,2020.1.2,MacIntel,60,,,m,0,0.26554,0,99,99,140,1,,
,,,,,,,,,,,,petrol,pudrol,PETROL,RL1,m,999,2020-08-19_13h41.39.553,ColomboPrimingTaskA,2020.1.2,MacIntel,60,,,m,1,0.25719,0,100,100,44,1,,
,,,,,,,,,,,,wilked,winted,WILKED,RLNW,z,999,2020-08-19_13h41.39.553,ColomboPrimingTaskA,2020.1.2,MacIntel,60,,,m,0,0.21704,0,101,101,152,1,,
,,,,,,,,,,,,biscuit,bsicuit,BISCUIT,TL1,m,999,2020-08-19_13h41.39.553,ColomboPrimingTaskA,2020.1.2,MacIntel,60,,,m,1,0.39036,0,102,102,7,1,,
,,,,,,,,,,,,referee,raderee,REFEREE,RL1,m,999,2020-08-19_13h41.39.553,ColomboPrimingTaskA,2020.1.2,MacIntel,60,,,m,1,0.308275,0,103,103,52,1,,
,,,,,,,,,,,,crims,cirms,CRIMS,TLNW,z,999,2020-08-19_13h41.39.553,ColomboPrimingTaskA,2020.1.2,MacIntel,60,,,m,0,0.64981,0,104,104,91,1,,
,,,,,,,,,,,,believe,bleieve,BELIEVE,TL1,m,999,2020-08-19_13h41.39.553,ColomboPrimingTaskA,2020.1.2,MacIntel,60,,,m,1,0.353205,0,105,105,5,1,,
,,,,,,,,,,,,robber,ramber,ROBBER,RL1,m,999,2020-08-19_13h41.39.553,ColomboPrimingTaskA,2020.1.2,MacIntel,60,,,m,1,0.57196,0,106,106,54,1,,
,,,,,,,,,,,,niffling,nitffing,NIFFLING,RLNW,z,999,2020-08-19_13h41.39.553,ColomboPrimingTaskA,2020.1.2,MacIntel,60,,,m,0,0.46612,0,107,107,116,1,,
,,,,,,,,,,,,spirit,spizat,SPIRIT,RL2,m,999,2020-08-19_13h41.39.553,ColomboPrimingTaskA,2020.1.2,MacIntel,60,,,m,1,0.38148,0,108,108,63,1,,
,,,,,,,,,,,,thirns,thowns,THIRNS,RLNW,z,999,2020-08-19_13h41.39.553,ColomboPrimingTaskA,2020.1.2,MacIntel,60,,,m,0,0.30547,0,109,109,148,1,,
,,,,,,,,,,,,swump,scomp,SWUMP,RLNW,z,999,2020-08-19_13h41.39.553,ColomboPrimingTaskA,2020.1.2,MacIntel,60,,,m,0,0.41646,0,110,110,144,1,,
,,,,,,,,,,,,heaven,heaevn,HEAVEN,TL2,m,999,2020-08-19_13h41.39.553,ColomboPrimingTaskA,2020.1.2,MacIntel,60,,,m,1,0.314195,0,111,111,23,1,,
,,,,,,,,,,,,panther,pirther,PANTHER,RL1,m,999,2020-08-19_13h41.39.553,ColomboPrimingTaskA,2020.1.2,MacIntel,60,,,m,1,0.386225,0,112,112,40,1,,
,,,,,,,,,,,,chupter,chutper,CHUPTER,TLNW,z,999,2020-08-19_13h41.39.553,ColomboPrimingTaskA,2020.1.2,MacIntel,60,,,m,0,0.044085,0,113,113,87,1,,
,,,,,,,,,,,,twotched,tartched,TWOTCHED,RLNW,z,999,2020-08-19_13h41.39.553,ColomboPrimingTaskA,2020.1.2,MacIntel,60,,,m,0,0.16503,0,114,114,151,1,,
,,,,,,,,,,,,difentions,difnetions,DIFENTIONS,TLNW,z,999,2020-08-19_13h41.39.553,ColomboPrimingTaskA,2020.1.2,MacIntel,60,,,m,0,0.1697,0,115,115,95,1,,
,,,,,,,,,,,,pavement,pirement,PAVEMENT,RL1,m,999,2020-08-19_13h41.39.553,ColomboPrimingTaskA,2020.1.2,MacIntel,60,,,m,1,0.519,0,116,116,42,1,,
,,,,,,,,,,,,ghost,ghsot,GHOST,TL2,m,999,2020-08-19_13h41.39.553,ColomboPrimingTaskA,2020.1.2,MacIntel,60,,,m,1,0.271065,0,117,117,22,1,,
,,,,,,,,,,,,print,puant,PRINT,RL1,m,999,2020-08-19_13h41.39.553,ColomboPrimingTaskA,2020.1.2,MacIntel,60,,,m,1,0.40812,0,118,118,51,1,,
,,,,,,,,,,,,spoff,swoff,SPOFF,RLNW,z,999,2020-08-19_13h41.39.553,ColomboPrimingTaskA,2020.1.2,MacIntel,60,,,m,0,0.857265,0,119,119,143,1,,
,,,,,,,,,,,,trapped,traplod,TRAPPED,RL2,m,999,2020-08-19_13h41.39.553,ColomboPrimingTaskA,2020.1.2,MacIntel,60,,,m,1,0.652675,0,120,120,73,1,,
,,,,,,,,,,,,holiday,holiady,HOLIDAY,TL2,m,999,2020-08-19_13h41.39.553,ColomboPrimingTaskA,2020.1.2,MacIntel,60,,,m,1,0.32572,0,121,121,25,1,,
,,,,,,,,,,,,environment,evnironment,ENVIRONMENT,TL1,m,999,2020-08-19_13h41.39.553,ColomboPrimingTaskA,2020.1.2,MacIntel,60,,,m,1,0.54777,0,122,122,16,1,,
,,,,,,,,,,,,pigeon,payeon,PIGEON,RL1,m,999,2020-08-19_13h41.39.553,ColomboPrimingTaskA,2020.1.2,MacIntel,60,,,m,1,1.63332,0,123,123,45,1,,
,,,,,,,,,,,,arvument,avrument,ARVUMENT,TLNW,z,999,2020-08-19_13h41.39.553,ColomboPrimingTaskA,2020.1.2,MacIntel,60,,,m,0,0.698385,0,124,124,79,1,,
,,,,,,,,,,,,influence,influecne,INFLUENCE,TL2,m,999,2020-08-19_13h41.39.553,ColomboPrimingTaskA,2020.1.2,MacIntel,60,,,m,1,0.3326,0,125,125,28,1,,
,,,,,,,,,,,,talking,talkerg,TALKING,RL2,m,999,2020-08-19_13h41.39.553,ColomboPrimingTaskA,2020.1.2,MacIntel,60,,,m,1,1.63418,0,126,126,70,1,,
,,,,,,,,,,,,story,stizy,STORY,RL2,m,999,2020-08-19_13h41.39.553,ColomboPrimingTaskA,2020.1.2,MacIntel,60,,,m,1,0.281595,0,127,127,66,1,,
,,,,,,,,,,,,following,flolowing,FOLLOWING,TL1,m,999,2020-08-19_13h41.39.553,ColomboPrimingTaskA,2020.1.2,MacIntel,60,,,m,1,0.431525,0,128,128,18,1,,
,,,,,,,,,,,,crunphy,curnphy,CRUNPHY,TLNW,z,999,2020-08-19_13h41.39.553,ColomboPrimingTaskA,2020.1.2,MacIntel,60,,,m,0,0.20288,0,129,129,92,1,,
,,,,,,,,,,,,pench,pnech,PENCH,TLNW,z,999,2020-08-19_13h41.39.553,ColomboPrimingTaskA,2020.1.2,MacIntel,60,,,m,0,0.354125,0,130,130,118,1,,
,,,,,,,,,,,,stilks,stliks,STILKS,TLNW,z,999,2020-08-19_13h41.39.553,ColomboPrimingTaskA,2020.1.2,MacIntel,60,,,m,0,0.339345,0,131,131,135,1,,
,,,,,,,,,,,,standust,stalkust,STANDUST,RLNW,z,999,2020-08-19_13h41.39.553,ColomboPrimingTaskA,2020.1.2,MacIntel,60,,,m,0,0.416585,0,132,132,138,1,,
,,,,,,,,,,,,asbrunaut,absrunaut,ASBRUNAUT,TLNW,z,999,2020-08-19_13h41.39.553,ColomboPrimingTaskA,2020.1.2,MacIntel,60,,,m,0,0.30153,0,133,133,80,1,,
,,,,,,,,,,,,plain,proin,PLAIN,RL1,m,999,2020-08-19_13h41.39.553,ColomboPrimingTaskA,2020.1.2,MacIntel,60,,,m,1,0.43205,0,134,134,46,1,,
,,,,,,,,,,,,patient,ponient,PATIENT,RL1,m,999,2020-08-19_13h41.39.553,ColomboPrimingTaskA,2020.1.2,MacIntel,60,,,m,1,1.115635,0,135,135,41,1,,
,,,,,,,,,,,,potato,pidato,POTATO,RL1,m,999,2020-08-19_13h41.39.553,ColomboPrimingTaskA,2020.1.2,MacIntel,60,,,m,1,2.53415,0,136,136,48,1,,
,,,,,,,,,,,,lying,lynig,LYING,TL2,m,999,2020-08-19_13h41.39.553,ColomboPrimingTaskA,2020.1.2,MacIntel,60,,,m,1,1.730965,0,137,137,33,1,,
,,,,,,,,,,,,emter,erfer,EMTER,RLNW,z,999,2020-08-19_13h41.39.553,ColomboPrimingTaskA,2020.1.2,MacIntel,60,,,m,0,0.33418,0,138,138,99,1,,
,,,,,,,,,,,,alphabet,aplhabet,ALPHABET,TL1,m,999,2020-08-19_13h41.39.553,ColomboPrimingTaskA,2020.1.2,MacIntel,60,,,m,1,1.217375,0,139,139,1,1,,
,,,,,,,,,,,,grufes,glofes,GRUFES,RLNW,z,999,2020-08-19_13h41.39.553,ColomboPrimingTaskA,2020.1.2,MacIntel,60,,,m,0,0.332975,0,140,140,105,1,,
,,,,,,,,,,,,dored,droed,DORED,TLNW,z,999,2020-08-19_13h41.39.553,ColomboPrimingTaskA,2020.1.2,MacIntel,60,,,m,0,0.67164,0,141,141,96,1,,
,,,,,,,,,,,,natural,natuarl,NATURAL,TL2,m,999,2020-08-19_13h41.39.553,ColomboPrimingTaskA,2020.1.2,MacIntel,60,,,m,1,0.648385,0,142,142,37,1,,
,,,,,,,,,,,,cammied,cammeid,CAMMIED,TLNW,z,999,2020-08-19_13h41.39.553,ColomboPrimingTaskA,2020.1.2,MacIntel,60,,,m,0,0.34084,0,143,143,85,1,,
,,,,,,,,,,,,mirtioned,minfioned,MIRTIONED,RLNW,z,999,2020-08-19_13h41.39.553,ColomboPrimingTaskA,2020.1.2,MacIntel,60,,,m,0,0.434615,0,144,144,113,1,,
,,,,,,,,,,,,snake,snute,SNAKE,RL2,m,999,2020-08-19_13h41.39.553,ColomboPrimingTaskA,2020.1.2,MacIntel,60,,,m,1,0.517855,0,145,145,61,1,,
,,,,,,,,,,,,tomay,tovoy,TOMAY,RLNW,z,999,2020-08-19_13h41.39.553,ColomboPrimingTaskA,2020.1.2,MacIntel,60,,,m,0,0.38462,0,146,146,149,1,,
,,,,,,,,,,,,bidger,bdiger,BIDGER,TLNW,z,999,2020-08-19_13h41.39.553,ColomboPrimingTaskA,2020.1.2,MacIntel,60,,,m,0,0.33585,0,147,147,81,1,,
,,,,,,,,,,,,child,cihld,CHILD,TL1,m,999,2020-08-19_13h41.39.553,ColomboPrimingTaskA,2020.1.2,MacIntel,60,,,m,1,1.469345,0,148,148,12,1,,
,,,,,,,,,,,,forest,forset,FOREST,TL2,m,999,2020-08-19_13h41.39.553,ColomboPrimingTaskA,2020.1.2,MacIntel,60,,,m,1,0.30413,0,149,149,20,1,,
,,,,,,,,,,,,return,rafurn,RETURN,RL1,m,999,2020-08-19_13h41.39.553,ColomboPrimingTaskA,2020.1.2,MacIntel,60,,,m,1,0.249535,0,150,150,53,1,,
,,,,,,,,,,,,scratch,swoatch,SCRATCH,RL1,m,999,2020-08-19_13h41.39.553,ColomboPrimingTaskA,2020.1.2,MacIntel,60,,,m,1,0.521795,0,151,151,56,1,,
,,,,,,,,,,,,rimble,ribmle,RIMBLE,TLNW,z,999,2020-08-19_13h41.39.553,ColomboPrimingTaskA,2020.1.2,MacIntel,60,,,m,0,0.41517,0,152,152,127,1,,
,,,,,,,,,,,,stoff,sotff,STOFF,TLNW,z,999,2020-08-19_13h41.39.553,ColomboPrimingTaskA,2020.1.2,MacIntel,60,,,m,0,0.73442,0,153,153,134,1,,
,,,,,,,,,,,,awful,afwul,AWFUL,TL1,m,999,2020-08-19_13h41.39.553,ColomboPrimingTaskA,2020.1.2,MacIntel,60,,,m,1,0.648185,0,154,154,3,1,,
,,,,,,,,,,,,entry,etnry,ENTRY,TL1,m,999,2020-08-19_13h41.39.553,ColomboPrimingTaskA,2020.1.2,MacIntel,60,,,m,1,1.18072,0,155,155,15,1,,
,,,,,,,,,,,,,,,,,999,2020-08-19_13h41.39.553,ColomboPrimingTaskA,2020.1.2,MacIntel,60,,,,,,,,,,, mouse ,Xxxxx
