Space1.keys,Space1.rt,Space2.keys,Space2.rt,key_resp.keys,key_resp.corr,key_resp.rt,Practice_loop.thisRepN,Practice_loop.thisTrialN,Practice_loop.thisN,Practice_loop.thisIndex,Practice_loop.ran,Target1,Prime,Target2,Type,CorrAns,Participant I.D.,date,expName,psychopyVersion,OS,frameRate,Space3.keys,Space3.rt,key_resp_2.keys,key_resp_2.corr,key_resp_2.rt,trials.thisRepN,trials.thisTrialN,trials.thisN,trials.thisIndex,trials.ran,typedWord,typedWord2
space,1.149,space,22.969,m,1,1.66,0,0,0,1,1,elderflower,elferdower,ELDERFLOWER,WTL,m,6810,2020-10-18_15h51.21.226,ColomboPrimingTaskA,2020.1.2,MacIntel,60,,,,,,,,,,,,
,,,,m,1,0.887,0,1,1,7,1,nursery,nuftery,NURSERY,WRL,m,6810,2020-10-18_15h51.21.226,ColomboPrimingTaskA,2020.1.2,MacIntel,60,,,,,,,,,,,,
,,,,z,1,1.155,0,2,2,20,1,bubbfes,buddfes,BUBBFES,NWRL,z,6810,2020-10-18_15h51.21.226,ColomboPrimingTaskA,2020.1.2,MacIntel,60,,,,,,,,,,,,
,,,,z,1,1.083,0,3,3,18,1,alacus,afogus,ALACUS,NWRL,z,6810,2020-10-18_15h51.21.226,ColomboPrimingTaskA,2020.1.2,MacIntel,60,,,,,,,,,,,,
,,,,m,1,0.567,0,4,4,5,1,library,lirbary,LIBRARY,WTL,m,6810,2020-10-18_15h51.21.226,ColomboPrimingTaskA,2020.1.2,MacIntel,60,,,,,,,,,,,,
,,,,m,1,0.973,0,5,5,6,1,monopoly,mogomoly,MONOPOLY,WRL,m,6810,2020-10-18_15h51.21.226,ColomboPrimingTaskA,2020.1.2,MacIntel,60,,,,,,,,,,,,
,,,,m,1,1.13,0,6,6,11,1,violin,viprin,VIOLIN,WRL,m,6810,2020-10-18_15h51.21.226,ColomboPrimingTaskA,2020.1.2,MacIntel,60,,,,,,,,,,,,
,,,,m,1,0.896,0,7,7,9,1,parcel,pafbel,PARCEL,WRL,m,6810,2020-10-18_15h51.21.226,ColomboPrimingTaskA,2020.1.2,MacIntel,60,,,,,,,,,,,,
,,,,z,1,1.287,0,8,8,16,1,clirate,crilate,CLIRATE,NWTL,z,6810,2020-10-18_15h51.21.226,ColomboPrimingTaskA,2020.1.2,MacIntel,60,,,,,,,,,,,,
,,,,m,1,0.818,0,9,9,3,1,fifty,fitfy,FIFTY,WTL,m,6810,2020-10-18_15h51.21.226,ColomboPrimingTaskA,2020.1.2,MacIntel,60,,,,,,,,,,,,
,,,,z,1,1.063,0,10,10,19,1,bacoon,barkon,BACOON,NWRL,z,6810,2020-10-18_15h51.21.226,ColomboPrimingTaskA,2020.1.2,MacIntel,60,,,,,,,,,,,,
,,,,z,1,1.004,0,11,11,13,1,cobcert,cocbert,COBCERT,NWTL,z,6810,2020-10-18_15h51.21.226,ColomboPrimingTaskA,2020.1.2,MacIntel,60,,,,,,,,,,,,
,,,,m,1,0.757,0,12,12,2,1,festival,fetsival,FESTIVAL,WTL,m,6810,2020-10-18_15h51.21.226,ColomboPrimingTaskA,2020.1.2,MacIntel,60,,,,,,,,,,,,
,,,,z,1,1.221,0,13,13,14,1,dinital,ditinal,DINITAL,NWTL,z,6810,2020-10-18_15h51.21.226,ColomboPrimingTaskA,2020.1.2,MacIntel,60,,,,,,,,,,,,
,,,,m,1,0.691,0,14,14,4,1,laundry,laudnry,LAUNDRY,WTL,m,6810,2020-10-18_15h51.21.226,ColomboPrimingTaskA,2020.1.2,MacIntel,60,,,,,,,,,,,,
,,,,m,1,0.684,0,15,15,8,1,picture,pimrure,PICTURE,WRL,m,6810,2020-10-18_15h51.21.226,ColomboPrimingTaskA,2020.1.2,MacIntel,60,,,,,,,,,,,,
,,,,z,1,1.162,0,16,16,23,1,cnipper,crupper,CNIPPER,NWRL,z,6810,2020-10-18_15h51.21.226,ColomboPrimingTaskA,2020.1.2,MacIntel,60,,,,,,,,,,,,
,,,,z,1,1.202,0,17,17,12,1,codfort,cofdort,CODFORT,NWTL,z,6810,2020-10-18_15h51.21.226,ColomboPrimingTaskA,2020.1.2,MacIntel,60,,,,,,,,,,,,
,,,,z,1,1.106,0,18,18,22,1,chfistmas,chrustmas,CHFISTMAS,NWRL,z,6810,2020-10-18_15h51.21.226,ColomboPrimingTaskA,2020.1.2,MacIntel,60,,,,,,,,,,,,
,,,,z,1,1.301,0,19,19,17,1,flech,felch,FLECH,NWTL,z,6810,2020-10-18_15h51.21.226,ColomboPrimingTaskA,2020.1.2,MacIntel,60,,,,,,,,,,,,
,,,,m,1,0.788,0,20,20,0,1,coral,croal,CORAL,WTL,m,6810,2020-10-18_15h51.21.226,ColomboPrimingTaskA,2020.1.2,MacIntel,60,,,,,,,,,,,,
,,,,z,1,0.989,0,21,21,15,1,etephant,etpheant,ETEPHANT,NWTL,z,6810,2020-10-18_15h51.21.226,ColomboPrimingTaskA,2020.1.2,MacIntel,60,,,,,,,,,,,,
,,,,z,1,1.141,0,22,22,21,1,campet,cantet,CAMPET,NWRL,z,6810,2020-10-18_15h51.21.226,ColomboPrimingTaskA,2020.1.2,MacIntel,60,,,,,,,,,,,,
,,,,m,1,0.781,0,23,23,10,1,twitter,twitofr,TWITTER,WRL,m,6810,2020-10-18_15h51.21.226,ColomboPrimingTaskA,2020.1.2,MacIntel,60,,,,,,,,,,,,
,,,,,,,,,,,,referee,raderee,REFEREE,RL1,m,6810,2020-10-18_15h51.21.226,ColomboPrimingTaskA,2020.1.2,MacIntel,60,space,2.412,m,1,1.72,0,0,0,52,1,,
,,,,,,,,,,,,senved,serced,SENVED,RLNW,z,6810,2020-10-18_15h51.21.226,ColomboPrimingTaskA,2020.1.2,MacIntel,60,,,z,1,1.359,0,1,1,101,1,,
,,,,,,,,,,,,sleeve,sleone,SLEEVE,RL2,m,6810,2020-10-18_15h51.21.226,ColomboPrimingTaskA,2020.1.2,MacIntel,60,,,m,1,0.775,0,2,2,58,1,,
,,,,,,,,,,,,stilks,stliks,STILKS,TLNW,z,6810,2020-10-18_15h51.21.226,ColomboPrimingTaskA,2020.1.2,MacIntel,60,,,z,1,1.163,0,3,3,135,1,,
,,,,,,,,,,,,drink,dirnk,DRINK,TL1,m,6810,2020-10-18_15h51.21.226,ColomboPrimingTaskA,2020.1.2,MacIntel,60,,,m,1,0.601,0,4,4,14,1,,
,,,,,,,,,,,,hoafe,houte,HOAFE,RLNW,z,6810,2020-10-18_15h51.21.226,ColomboPrimingTaskA,2020.1.2,MacIntel,60,,,z,1,0.834,0,5,5,107,1,,
,,,,,,,,,,,,winner,winfor,WINNER,RL2,m,6810,2020-10-18_15h51.21.226,ColomboPrimingTaskA,2020.1.2,MacIntel,60,,,m,1,0.568,0,6,6,76,1,,
,,,,,,,,,,,,powerful,panerful,POWERFUL,RL1,m,6810,2020-10-18_15h51.21.226,ColomboPrimingTaskA,2020.1.2,MacIntel,60,,,m,1,0.665,0,7,7,49,1,,
,,,,,,,,,,,,return,rafurn,RETURN,RL1,m,6810,2020-10-18_15h51.21.226,ColomboPrimingTaskA,2020.1.2,MacIntel,60,,,m,1,0.67,0,8,8,53,1,,
,,,,,,,,,,,,plastic,prostic,PLASTIC,RL1,m,6810,2020-10-18_15h51.21.226,ColomboPrimingTaskA,2020.1.2,MacIntel,60,,,m,1,0.808,0,9,9,47,1,,
,,,,,,,,,,,,tomay,tovoy,TOMAY,RLNW,z,6810,2020-10-18_15h51.21.226,ColomboPrimingTaskA,2020.1.2,MacIntel,60,,,z,1,1.163,0,10,10,149,1,,
,,,,,,,,,,,,chicken,cihcken,CHICKEN,TL1,m,6810,2020-10-18_15h51.21.226,ColomboPrimingTaskA,2020.1.2,MacIntel,60,,,m,1,0.691,0,11,11,11,1,,
,,,,,,,,,,,,crockle,corckle,CROCKLE,TLNW,z,6810,2020-10-18_15h51.21.226,ColomboPrimingTaskA,2020.1.2,MacIntel,60,,,z,1,1.713,0,12,12,89,1,,
,,,,,,,,,,,,stomach,stomush,STOMACH,RL2,m,6810,2020-10-18_15h51.21.226,ColomboPrimingTaskA,2020.1.2,MacIntel,60,,,m,1,0.634,0,13,13,65,1,,
,,,,,,,,,,,,hibernate,hiberntae,HIBERNATE,TL2,m,6810,2020-10-18_15h51.21.226,ColomboPrimingTaskA,2020.1.2,MacIntel,60,,,m,1,1.085,0,14,14,24,1,,
,,,,,,,,,,,,rolin,roiln,ROLIN,TLNW,z,6810,2020-10-18_15h51.21.226,ColomboPrimingTaskA,2020.1.2,MacIntel,60,,,z,1,1.008,0,15,15,126,1,,
,,,,,,,,,,,,scraff,srcaff,SCRAFF,TLNW,z,6810,2020-10-18_15h51.21.226,ColomboPrimingTaskA,2020.1.2,MacIntel,60,,,z,1,1.082,0,16,16,128,1,,
,,,,,,,,,,,,meanwhile,meanwhlie,MEANWHILE,TL2,m,6810,2020-10-18_15h51.21.226,ColomboPrimingTaskA,2020.1.2,MacIntel,60,,,m,1,0.605,0,17,17,36,1,,
,,,,,,,,,,,,winter,winfur,WINTER,RL2,m,6810,2020-10-18_15h51.21.226,ColomboPrimingTaskA,2020.1.2,MacIntel,60,,,m,1,0.586,0,18,18,77,1,,
,,,,,,,,,,,,skiffed,skfifed,SKIFFED,TLNW,z,6810,2020-10-18_15h51.21.226,ColomboPrimingTaskA,2020.1.2,MacIntel,60,,,z,1,1.14,0,19,19,130,1,,
,,,,,,,,,,,,wardrobe,wardrile,WARDROBE,RL2,m,6810,2020-10-18_15h51.21.226,ColomboPrimingTaskA,2020.1.2,MacIntel,60,,,m,1,0.668,0,20,20,75,1,,
,,,,,,,,,,,,dentist,dnetist,DENTIST,TL1,m,6810,2020-10-18_15h51.21.226,ColomboPrimingTaskA,2020.1.2,MacIntel,60,,,m,1,0.582,0,21,21,13,1,,
,,,,,,,,,,,,hospital,hospiatl,HOSPITAL,TL2,m,6810,2020-10-18_15h51.21.226,ColomboPrimingTaskA,2020.1.2,MacIntel,60,,,m,1,0.608,0,22,22,26,1,,
,,,,,,,,,,,,tronch,taunch,TRONCH,RLNW,z,6810,2020-10-18_15h51.21.226,ColomboPrimingTaskA,2020.1.2,MacIntel,60,,,z,1,1.083,0,23,23,150,1,,
,,,,,,,,,,,,woary,wonvy,WOARY,RLNW,z,6810,2020-10-18_15h51.21.226,ColomboPrimingTaskA,2020.1.2,MacIntel,60,,,z,1,0.877,0,24,24,153,1,,
,,,,,,,,,,,,callage,callgae,CALLAGE,TLNW,z,6810,2020-10-18_15h51.21.226,ColomboPrimingTaskA,2020.1.2,MacIntel,60,,,z,1,1.774,0,25,25,83,1,,
,,,,,,,,,,,,talking,talkerg,TALKING,RL2,m,6810,2020-10-18_15h51.21.226,ColomboPrimingTaskA,2020.1.2,MacIntel,60,,,m,1,0.64,0,26,26,70,1,,
,,,,,,,,,,,,plain,proin,PLAIN,RL1,m,6810,2020-10-18_15h51.21.226,ColomboPrimingTaskA,2020.1.2,MacIntel,60,,,m,1,0.718,0,27,27,46,1,,
,,,,,,,,,,,,spear,spoir,SPEAR,RL2,m,6810,2020-10-18_15h51.21.226,ColomboPrimingTaskA,2020.1.2,MacIntel,60,,,m,1,2.18,0,28,28,62,1,,
,,,,,,,,,,,,spoff,swoff,SPOFF,RLNW,z,6810,2020-10-18_15h51.21.226,ColomboPrimingTaskA,2020.1.2,MacIntel,60,,,z,1,0.863,0,29,29,143,1,,
,,,,,,,,,,,,fulore,fitore,FULORE,RLNW,z,6810,2020-10-18_15h51.21.226,ColomboPrimingTaskA,2020.1.2,MacIntel,60,,,z,1,1.354,0,30,30,103,1,,
,,,,,,,,,,,,thirns,thowns,THIRNS,RLNW,z,6810,2020-10-18_15h51.21.226,ColomboPrimingTaskA,2020.1.2,MacIntel,60,,,z,1,0.938,0,31,31,148,1,,
,,,,,,,,,,,,believe,bleieve,BELIEVE,TL1,m,6810,2020-10-18_15h51.21.226,ColomboPrimingTaskA,2020.1.2,MacIntel,60,,,m,1,0.624,0,32,32,5,1,,
,,,,,,,,,,,,renorded,renroded,RENORDED,TLNW,z,6810,2020-10-18_15h51.21.226,ColomboPrimingTaskA,2020.1.2,MacIntel,60,,,z,1,1.574,0,33,33,124,1,,
,,,,,,,,,,,,awful,afwul,AWFUL,TL1,m,6810,2020-10-18_15h51.21.226,ColomboPrimingTaskA,2020.1.2,MacIntel,60,,,m,1,0.806,0,34,34,3,1,,
,,,,,,,,,,,,stoff,sotff,STOFF,TLNW,z,6810,2020-10-18_15h51.21.226,ColomboPrimingTaskA,2020.1.2,MacIntel,60,,,z,1,0.758,0,35,35,134,1,,
,,,,,,,,,,,,prince,plunce,PRINCE,RL1,m,6810,2020-10-18_15h51.21.226,ColomboPrimingTaskA,2020.1.2,MacIntel,60,,,m,1,0.74,0,36,36,50,1,,
,,,,,,,,,,,,rimble,ribmle,RIMBLE,TLNW,z,6810,2020-10-18_15h51.21.226,ColomboPrimingTaskA,2020.1.2,MacIntel,60,,,z,1,0.949,0,37,37,127,1,,
,,,,,,,,,,,,environment,evnironment,ENVIRONMENT,TL1,m,6810,2020-10-18_15h51.21.226,ColomboPrimingTaskA,2020.1.2,MacIntel,60,,,m,1,0.583,0,38,38,16,1,,
,,,,,,,,,,,,pavement,pirement,PAVEMENT,RL1,m,6810,2020-10-18_15h51.21.226,ColomboPrimingTaskA,2020.1.2,MacIntel,60,,,m,1,1.017,0,39,39,42,1,,
,,,,,,,,,,,,print,puant,PRINT,RL1,m,6810,2020-10-18_15h51.21.226,ColomboPrimingTaskA,2020.1.2,MacIntel,60,,,m,1,0.604,0,40,40,51,1,,
,,,,,,,,,,,,crishing,cirshing,CRISHING,TLNW,z,6810,2020-10-18_15h51.21.226,ColomboPrimingTaskA,2020.1.2,MacIntel,60,,,z,1,1.039,0,41,41,90,1,,
,,,,,,,,,,,,kitchen,kitcehn,KITCHEN,TL2,m,6810,2020-10-18_15h51.21.226,ColomboPrimingTaskA,2020.1.2,MacIntel,60,,,m,1,0.574,0,42,42,30,1,,
,,,,,,,,,,,,swallow,swaldaw,SWALLOW,RL2,m,6810,2020-10-18_15h51.21.226,ColomboPrimingTaskA,2020.1.2,MacIntel,60,,,m,1,0.851,0,43,43,69,1,,
,,,,,,,,,,,,market,marekt,MARKET,TL2,m,6810,2020-10-18_15h51.21.226,ColomboPrimingTaskA,2020.1.2,MacIntel,60,,,m,1,0.49,0,44,44,34,1,,
,,,,,,,,,,,,sibble,siblbe,SIBBLE,TLNW,z,6810,2020-10-18_15h51.21.226,ColomboPrimingTaskA,2020.1.2,MacIntel,60,,,z,1,1,0,45,45,129,1,,
,,,,,,,,,,,,caterpiddar,catrepiddar,CATERPIDDAR,TLNW,z,6810,2020-10-18_15h51.21.226,ColomboPrimingTaskA,2020.1.2,MacIntel,60,,,z,1,1.673,0,46,46,86,1,,
,,,,,,,,,,,,twotched,tartched,TWOTCHED,RLNW,z,6810,2020-10-18_15h51.21.226,ColomboPrimingTaskA,2020.1.2,MacIntel,60,,,z,1,1.148,0,47,47,151,1,,
,,,,,,,,,,,,arvument,avrument,ARVUMENT,TLNW,z,6810,2020-10-18_15h51.21.226,ColomboPrimingTaskA,2020.1.2,MacIntel,60,,,z,1,0.865,0,48,48,79,1,,
,,,,,,,,,,,,panther,pirther,PANTHER,RL1,m,6810,2020-10-18_15h51.21.226,ColomboPrimingTaskA,2020.1.2,MacIntel,60,,,m,1,0.808,0,49,49,40,1,,
,,,,,,,,,,,,chupter,chutper,CHUPTER,TLNW,z,6810,2020-10-18_15h51.21.226,ColomboPrimingTaskA,2020.1.2,MacIntel,60,,,z,1,0.714,0,50,50,87,1,,
,,,,,,,,,,,,difentions,difnetions,DIFENTIONS,TLNW,z,6810,2020-10-18_15h51.21.226,ColomboPrimingTaskA,2020.1.2,MacIntel,60,,,z,1,1.437,0,51,51,95,1,,
,,,,,,,,,,,,crims,cirms,CRIMS,TLNW,z,6810,2020-10-18_15h51.21.226,ColomboPrimingTaskA,2020.1.2,MacIntel,60,,,z,1,0.865,0,52,52,91,1,,
,,,,,,,,,,,,clavely,calvely,CLAVELY,TLNW,z,6810,2020-10-18_15h51.21.226,ColomboPrimingTaskA,2020.1.2,MacIntel,60,,,z,1,0.967,0,53,53,88,1,,
,,,,,,,,,,,,proffed,porffed,PROFFED,TLNW,z,6810,2020-10-18_15h51.21.226,ColomboPrimingTaskA,2020.1.2,MacIntel,60,,,z,1,0.929,0,54,54,122,1,,
,,,,,,,,,,,,bidger,bdiger,BIDGER,TLNW,z,6810,2020-10-18_15h51.21.226,ColomboPrimingTaskA,2020.1.2,MacIntel,60,,,z,1,0.834,0,55,55,81,1,,
,,,,,,,,,,,,motter,mlater,MOTTER,RLNW,z,6810,2020-10-18_15h51.21.226,ColomboPrimingTaskA,2020.1.2,MacIntel,60,,,z,1,0.773,0,56,56,115,1,,
,,,,,,,,,,,,sunset,suncot,SUNSET,RL2,m,6810,2020-10-18_15h51.21.226,ColomboPrimingTaskA,2020.1.2,MacIntel,60,,,m,1,0.668,0,57,57,68,1,,
,,,,,,,,,,,,thoatre,thoikre,THOATRE,RLNW,z,6810,2020-10-18_15h51.21.226,ColomboPrimingTaskA,2020.1.2,MacIntel,60,,,z,1,0.735,0,58,58,147,1,,
,,,,,,,,,,,,legend,legned,LEGEND,TL2,m,6810,2020-10-18_15h51.21.226,ColomboPrimingTaskA,2020.1.2,MacIntel,60,,,m,1,0.758,0,59,59,31,1,,
,,,,,,,,,,,,child,cihld,CHILD,TL1,m,6810,2020-10-18_15h51.21.226,ColomboPrimingTaskA,2020.1.2,MacIntel,60,,,m,1,0.521,0,60,60,12,1,,
,,,,,,,,,,,,singer,sarger,SINGER,RL1,m,6810,2020-10-18_15h51.21.226,ColomboPrimingTaskA,2020.1.2,MacIntel,60,,,m,1,0.634,0,61,61,57,1,,
,,,,,,,,,,,,esferiment,emteriment,ESFERIMENT,RLNW,z,6810,2020-10-18_15h51.21.226,ColomboPrimingTaskA,2020.1.2,MacIntel,60,,,z,1,0.838,0,62,62,100,1,,
,,,,,,,,,,,,standust,stalkust,STANDUST,RLNW,z,6810,2020-10-18_15h51.21.226,ColomboPrimingTaskA,2020.1.2,MacIntel,60,,,z,1,1.056,0,63,63,138,1,,
,,,,,,,,,,,,gniching,gruching,GNICHING,RLNW,z,6810,2020-10-18_15h51.21.226,ColomboPrimingTaskA,2020.1.2,MacIntel,60,,,z,1,0.825,0,64,64,104,1,,
,,,,,,,,,,,,ghost,ghsot,GHOST,TL2,m,6810,2020-10-18_15h51.21.226,ColomboPrimingTaskA,2020.1.2,MacIntel,60,,,m,1,0.739,0,65,65,22,1,,
,,,,,,,,,,,,loarnt,lozint,LOARNT,RLNW,z,6810,2020-10-18_15h51.21.226,ColomboPrimingTaskA,2020.1.2,MacIntel,60,,,z,1,0.706,0,66,66,110,1,,
,,,,,,,,,,,,entry,etnry,ENTRY,TL1,m,6810,2020-10-18_15h51.21.226,ColomboPrimingTaskA,2020.1.2,MacIntel,60,,,m,1,0.541,0,67,67,15,1,,
,,,,,,,,,,,,stody,spady,STODY,RLNW,z,6810,2020-10-18_15h51.21.226,ColomboPrimingTaskA,2020.1.2,MacIntel,60,,,z,1,0.724,0,68,68,142,1,,
,,,,,,,,,,,,spailt,spalit,SPAILT,TLNW,z,6810,2020-10-18_15h51.21.226,ColomboPrimingTaskA,2020.1.2,MacIntel,60,,,z,1,0.785,0,69,69,133,1,,
,,,,,,,,,,,,forty,fotry,FORTY,TL2,m,6810,2020-10-18_15h51.21.226,ColomboPrimingTaskA,2020.1.2,MacIntel,60,,,m,1,0.937,0,70,70,21,1,,
,,,,,,,,,,,,dufty,dulpy,DUFTY,RLNW,z,6810,2020-10-18_15h51.21.226,ColomboPrimingTaskA,2020.1.2,MacIntel,60,,,z,1,0.941,0,71,71,97,1,,
,,,,,,,,,,,,floats,folats,FLOATS,TL1,m,6810,2020-10-18_15h51.21.226,ColomboPrimingTaskA,2020.1.2,MacIntel,60,,,m,1,0.807,0,72,72,17,1,,
,,,,,,,,,,,,blanket,balnket,BLANKET,TL1,m,6810,2020-10-18_15h51.21.226,ColomboPrimingTaskA,2020.1.2,MacIntel,60,,,m,1,0.768,0,73,73,8,1,,
,,,,,,,,,,,,robber,ramber,ROBBER,RL1,m,6810,2020-10-18_15h51.21.226,ColomboPrimingTaskA,2020.1.2,MacIntel,60,,,m,1,0.691,0,74,74,54,1,,
,,,,,,,,,,,,foreign,foregin,FOREIGN,TL2,m,6810,2020-10-18_15h51.21.226,ColomboPrimingTaskA,2020.1.2,MacIntel,60,,,m,1,0.671,0,75,75,19,1,,
,,,,,,,,,,,,around,aorund,AROUND,TL1,m,6810,2020-10-18_15h51.21.226,ColomboPrimingTaskA,2020.1.2,MacIntel,60,,,m,1,0.578,0,76,76,2,1,,
,,,,,,,,,,,,heafs,heils,HEAFS,RLNW,z,6810,2020-10-18_15h51.21.226,ColomboPrimingTaskA,2020.1.2,MacIntel,60,,,z,1,0.908,0,77,77,106,1,,
,,,,,,,,,,,,curfomers,crufomers,CURFOMERS,TLNW,z,6810,2020-10-18_15h51.21.226,ColomboPrimingTaskA,2020.1.2,MacIntel,60,,,z,1,0.715,0,78,78,93,1,,
,,,,,,,,,,,,stimp,sturp,STIMP,RLNW,z,6810,2020-10-18_15h51.21.226,ColomboPrimingTaskA,2020.1.2,MacIntel,60,,,z,1,0.876,0,79,79,137,1,,
,,,,,,,,,,,,privary,privray,PRIVARY,TLNW,z,6810,2020-10-18_15h51.21.226,ColomboPrimingTaskA,2020.1.2,MacIntel,60,,,z,1,1.03,0,80,80,121,1,,
,,,,,,,,,,,,stipping,stipporg,STIPPING,RLNW,z,6810,2020-10-18_15h51.21.226,ColomboPrimingTaskA,2020.1.2,MacIntel,60,,,z,1,1.193,0,81,81,140,1,,
,,,,,,,,,,,,cammied,cammeid,CAMMIED,TLNW,z,6810,2020-10-18_15h51.21.226,ColomboPrimingTaskA,2020.1.2,MacIntel,60,,,z,1,1.15,0,82,82,85,1,,
,,,,,,,,,,,,button,btuton,BUTTON,TL1,m,6810,2020-10-18_15h51.21.226,ColomboPrimingTaskA,2020.1.2,MacIntel,60,,,m,1,0.758,0,83,83,10,1,,
,,,,,,,,,,,,forest,forset,FOREST,TL2,m,6810,2020-10-18_15h51.21.226,ColomboPrimingTaskA,2020.1.2,MacIntel,60,,,m,1,0.624,0,84,84,20,1,,
,,,,,,,,,,,,boach,baoch,BOACH,TLNW,z,6810,2020-10-18_15h51.21.226,ColomboPrimingTaskA,2020.1.2,MacIntel,60,,,z,1,0.714,0,85,85,82,1,,
,,,,,,,,,,,,holiday,holiady,HOLIDAY,TL2,m,6810,2020-10-18_15h51.21.226,ColomboPrimingTaskA,2020.1.2,MacIntel,60,,,m,1,0.557,0,86,86,25,1,,
,,,,,,,,,,,,troasure,tronture,TROASURE,RLNW,z,6810,2020-10-18_15h51.21.226,ColomboPrimingTaskA,2020.1.2,MacIntel,60,,,z,1,0.751,0,87,87,146,1,,
,,,,,,,,,,,,mirtioned,minfioned,MIRTIONED,RLNW,z,6810,2020-10-18_15h51.21.226,ColomboPrimingTaskA,2020.1.2,MacIntel,60,,,z,1,0.706,0,88,88,113,1,,
,,,,,,,,,,,,round,reand,ROUND,RL1,m,6810,2020-10-18_15h51.21.226,ColomboPrimingTaskA,2020.1.2,MacIntel,60,,,m,1,0.599,0,89,89,55,1,,
,,,,,,,,,,,,match,macth,MATCH,TL2,m,6810,2020-10-18_15h51.21.226,ColomboPrimingTaskA,2020.1.2,MacIntel,60,,,m,1,0.533,0,90,90,35,1,,
,,,,,,,,,,,,stoze,skaze,STOZE,RLNW,z,6810,2020-10-18_15h51.21.226,ColomboPrimingTaskA,2020.1.2,MacIntel,60,,,z,1,0.667,0,91,91,141,1,,
,,,,,,,,,,,,markles,martnes,MARKLES,RLNW,z,6810,2020-10-18_15h51.21.226,ColomboPrimingTaskA,2020.1.2,MacIntel,60,,,z,1,0.909,0,92,92,112,1,,
,,,,,,,,,,,,canivan,canvian,CANIVAN,TLNW,z,6810,2020-10-18_15h51.21.226,ColomboPrimingTaskA,2020.1.2,MacIntel,60,,,z,1,0.965,0,93,93,84,1,,
,,,,,,,,,,,,yowned,yoazed,YOWNED,RLNW,z,6810,2020-10-18_15h51.21.226,ColomboPrimingTaskA,2020.1.2,MacIntel,60,,,z,1,1.788,0,94,94,155,1,,
,,,,,,,,,,,,spirit,spizat,SPIRIT,RL2,m,6810,2020-10-18_15h51.21.226,ColomboPrimingTaskA,2020.1.2,MacIntel,60,,,m,1,0.733,0,95,95,63,1,,
,,,,,,,,,,,,pevuliar,peuvliar,PEVULIAR,TLNW,z,6810,2020-10-18_15h51.21.226,ColomboPrimingTaskA,2020.1.2,MacIntel,60,,,z,1,0.791,0,96,96,119,1,,
,,,,,,,,,,,,instant,instnat,INSTANT,TL2,m,6810,2020-10-18_15h51.21.226,ColomboPrimingTaskA,2020.1.2,MacIntel,60,,,m,1,0.691,0,97,97,29,1,,
,,,,,,,,,,,,lying,lynig,LYING,TL2,m,6810,2020-10-18_15h51.21.226,ColomboPrimingTaskA,2020.1.2,MacIntel,60,,,m,1,0.69,0,98,98,33,1,,
,,,,,,,,,,,,outside,ondside,OUTSIDE,RL1,m,6810,2020-10-18_15h51.21.226,ColomboPrimingTaskA,2020.1.2,MacIntel,60,,,m,1,0.491,0,99,99,39,1,,
,,,,,,,,,,,,sturfish,stonfish,STURFISH,RLNW,z,6810,2020-10-18_15h51.21.226,ColomboPrimingTaskA,2020.1.2,MacIntel,60,,,z,1,0.942,0,100,100,139,1,,
,,,,,,,,,,,,snack,snurk,SNACK,RL2,m,6810,2020-10-18_15h51.21.226,ColomboPrimingTaskA,2020.1.2,MacIntel,60,,,m,1,0.607,0,101,101,60,1,,
,,,,,,,,,,,,swump,scomp,SWUMP,RLNW,z,6810,2020-10-18_15h51.21.226,ColomboPrimingTaskA,2020.1.2,MacIntel,60,,,z,1,0.655,0,102,102,144,1,,
,,,,,,,,,,,,niffling,nitffing,NIFFLING,RLNW,z,6810,2020-10-18_15h51.21.226,ColomboPrimingTaskA,2020.1.2,MacIntel,60,,,z,1,0.874,0,103,103,116,1,,
,,,,,,,,,,,,onerall,onreall,ONERALL,TLNW,z,6810,2020-10-18_15h51.21.226,ColomboPrimingTaskA,2020.1.2,MacIntel,60,,,z,1,0.79,0,104,104,117,1,,
,,,,,,,,,,,,basket,bsaket,BASKET,TL1,m,6810,2020-10-18_15h51.21.226,ColomboPrimingTaskA,2020.1.2,MacIntel,60,,,m,1,0.574,0,105,105,4,1,,
,,,,,,,,,,,,lopely,lopary,LOPELY,RLNW,z,6810,2020-10-18_15h51.21.226,ColomboPrimingTaskA,2020.1.2,MacIntel,60,,,z,1,0.857,0,106,106,111,1,,
,,,,,,,,,,,,pigeon,payeon,PIGEON,RL1,m,6810,2020-10-18_15h51.21.226,ColomboPrimingTaskA,2020.1.2,MacIntel,60,,,m,1,0.649,0,107,107,45,1,,
,,,,,,,,,,,,stull,storl,STULL,RLNW,z,6810,2020-10-18_15h51.21.226,ColomboPrimingTaskA,2020.1.2,MacIntel,60,,,z,1,0.531,0,108,108,136,1,,
,,,,,,,,,,,,penguin,purguin,PENGUIN,RL1,m,6810,2020-10-18_15h51.21.226,ColomboPrimingTaskA,2020.1.2,MacIntel,60,,,m,1,0.525,0,109,109,43,1,,
,,,,,,,,,,,,apting,atping,APTING,TLNW,z,6810,2020-10-18_15h51.21.226,ColomboPrimingTaskA,2020.1.2,MacIntel,60,,,z,1,0.615,0,110,110,78,1,,
,,,,,,,,,,,,hotel,hoetl,HOTEL,TL2,m,6810,2020-10-18_15h51.21.226,ColomboPrimingTaskA,2020.1.2,MacIntel,60,,,m,1,0.555,0,111,111,27,1,,
,,,,,,,,,,,,taidor,tordor,TAIDOR,RLNW,z,6810,2020-10-18_15h51.21.226,ColomboPrimingTaskA,2020.1.2,MacIntel,60,,,z,1,0.674,0,112,112,145,1,,
,,,,,,,,,,,,pench,pnech,PENCH,TLNW,z,6810,2020-10-18_15h51.21.226,ColomboPrimingTaskA,2020.1.2,MacIntel,60,,,z,1,0.89,0,113,113,118,1,,
,,,,,,,,,,,,enezies,enefoes,ENEZIES,RLNW,z,6810,2020-10-18_15h51.21.226,ColomboPrimingTaskA,2020.1.2,MacIntel,60,,,z,1,0.582,0,114,114,98,1,,
,,,,,,,,,,,,influence,influecne,INFLUENCE,TL2,m,6810,2020-10-18_15h51.21.226,ColomboPrimingTaskA,2020.1.2,MacIntel,60,,,m,1,0.715,0,115,115,28,1,,
,,,,,,,,,,,,sporks,sproks,SPORKS,TLNW,z,6810,2020-10-18_15h51.21.226,ColomboPrimingTaskA,2020.1.2,MacIntel,60,,,z,1,0.575,0,116,116,132,1,,
,,,,,,,,,,,,knorn,klarn,KNORN,RLNW,z,6810,2020-10-18_15h51.21.226,ColomboPrimingTaskA,2020.1.2,MacIntel,60,,,z,1,0.956,0,117,117,109,1,,
,,,,,,,,,,,,following,flolowing,FOLLOWING,TL1,m,6810,2020-10-18_15h51.21.226,ColomboPrimingTaskA,2020.1.2,MacIntel,60,,,m,1,0.791,0,118,118,18,1,,
,,,,,,,,,,,,tourist,tourant,TOURIST,RL2,m,6810,2020-10-18_15h51.21.226,ColomboPrimingTaskA,2020.1.2,MacIntel,60,,,m,1,0.6,0,119,119,72,1,,
,,,,,,,,,,,,emter,erfer,EMTER,RLNW,z,6810,2020-10-18_15h51.21.226,ColomboPrimingTaskA,2020.1.2,MacIntel,60,,,z,1,0.745,0,120,120,99,1,,
,,,,,,,,,,,,biscuit,bsicuit,BISCUIT,TL1,m,6810,2020-10-18_15h51.21.226,ColomboPrimingTaskA,2020.1.2,MacIntel,60,,,m,1,0.774,0,121,121,7,1,,
,,,,,,,,,,,,dored,droed,DORED,TLNW,z,6810,2020-10-18_15h51.21.226,ColomboPrimingTaskA,2020.1.2,MacIntel,60,,,z,1,1.085,0,122,122,96,1,,
,,,,,,,,,,,,almond,amlond,ALMOND,TL1,m,6810,2020-10-18_15h51.21.226,ColomboPrimingTaskA,2020.1.2,MacIntel,60,,,m,1,0.604,0,123,123,0,1,,
,,,,,,,,,,,,patient,ponient,PATIENT,RL1,m,6810,2020-10-18_15h51.21.226,ColomboPrimingTaskA,2020.1.2,MacIntel,60,,,m,1,0.573,0,124,124,41,1,,
,,,,,,,,,,,,asbrunaut,absrunaut,ASBRUNAUT,TLNW,z,6810,2020-10-18_15h51.21.226,ColomboPrimingTaskA,2020.1.2,MacIntel,60,,,z,1,1.355,0,125,125,80,1,,
,,,,,,,,,,,,midute,midoke,MIDUTE,RLNW,z,6810,2020-10-18_15h51.21.226,ColomboPrimingTaskA,2020.1.2,MacIntel,60,,,z,1,0.765,0,126,126,114,1,,
,,,,,,,,,,,,wilked,winted,WILKED,RLNW,z,6810,2020-10-18_15h51.21.226,ColomboPrimingTaskA,2020.1.2,MacIntel,60,,,z,1,0.791,0,127,127,152,1,,
,,,,,,,,,,,,thought,thourst,THOUGHT,RL2,m,6810,2020-10-18_15h51.21.226,ColomboPrimingTaskA,2020.1.2,MacIntel,60,,,m,1,0.732,0,128,128,71,1,,
,,,,,,,,,,,,orchestra,orchesrta,ORCHESTRA,TL2,m,6810,2020-10-18_15h51.21.226,ColomboPrimingTaskA,2020.1.2,MacIntel,60,,,,0,,0,129,129,38,1,,
,,,,,,,,,,,,grufes,glofes,GRUFES,RLNW,z,6810,2020-10-18_15h51.21.226,ColomboPrimingTaskA,2020.1.2,MacIntel,60,,,z,1,0.896,0,130,130,105,1,,
,,,,,,,,,,,,leopard,leoprad,LEOPARD,TL2,m,6810,2020-10-18_15h51.21.226,ColomboPrimingTaskA,2020.1.2,MacIntel,60,,,m,1,0.608,0,131,131,32,1,,
,,,,,,,,,,,,playnime,planyime,PLAYNIME,TLNW,z,6810,2020-10-18_15h51.21.226,ColomboPrimingTaskA,2020.1.2,MacIntel,60,,,z,1,0.905,0,132,132,120,1,,
,,,,,,,,,,,,wutch,wursh,WUTCH,RLNW,z,6810,2020-10-18_15h51.21.226,ColomboPrimingTaskA,2020.1.2,MacIntel,60,,,z,1,0.524,0,133,133,154,1,,
,,,,,,,,,,,,smooth,smouch,SMOOTH,RL2,m,6810,2020-10-18_15h51.21.226,ColomboPrimingTaskA,2020.1.2,MacIntel,60,,,m,1,0.566,0,134,134,59,1,,
,,,,,,,,,,,,potato,pidato,POTATO,RL1,m,6810,2020-10-18_15h51.21.226,ColomboPrimingTaskA,2020.1.2,MacIntel,60,,,m,1,0.562,0,135,135,48,1,,
,,,,,,,,,,,,natural,natuarl,NATURAL,TL2,m,6810,2020-10-18_15h51.21.226,ColomboPrimingTaskA,2020.1.2,MacIntel,60,,,m,1,0.554,0,136,136,37,1,,
,,,,,,,,,,,,alphabet,aplhabet,ALPHABET,TL1,m,6810,2020-10-18_15h51.21.226,ColomboPrimingTaskA,2020.1.2,MacIntel,60,,,m,1,0.468,0,137,137,1,1,,
,,,,,,,,,,,,birthday,brithday,BIRTHDAY,TL1,m,6810,2020-10-18_15h51.21.226,ColomboPrimingTaskA,2020.1.2,MacIntel,60,,,m,1,0.466,0,138,138,6,1,,
,,,,,,,,,,,,burning,bruning,BURNING,TL1,m,6810,2020-10-18_15h51.21.226,ColomboPrimingTaskA,2020.1.2,MacIntel,60,,,m,1,0.534,0,139,139,9,1,,
,,,,,,,,,,,,skirping,skriping,SKIRPING,TLNW,z,6810,2020-10-18_15h51.21.226,ColomboPrimingTaskA,2020.1.2,MacIntel,60,,,z,1,0.815,0,140,140,131,1,,
,,,,,,,,,,,,flazer,fruzer,FLAZER,RLNW,z,6810,2020-10-18_15h51.21.226,ColomboPrimingTaskA,2020.1.2,MacIntel,60,,,z,1,0.74,0,141,141,102,1,,
,,,,,,,,,,,,crunphy,curnphy,CRUNPHY,TLNW,z,6810,2020-10-18_15h51.21.226,ColomboPrimingTaskA,2020.1.2,MacIntel,60,,,z,1,0.764,0,142,142,92,1,,
,,,,,,,,,,,,roinwater,rionwater,ROINWATER,TLNW,z,6810,2020-10-18_15h51.21.226,ColomboPrimingTaskA,2020.1.2,MacIntel,60,,,z,1,0.651,0,143,143,123,1,,
,,,,,,,,,,,,vegetable,vegetance,VEGETABLE,RL2,m,6810,2020-10-18_15h51.21.226,ColomboPrimingTaskA,2020.1.2,MacIntel,60,,,m,1,0.598,0,144,144,74,1,,
,,,,,,,,,,,,trapped,traplod,TRAPPED,RL2,m,6810,2020-10-18_15h51.21.226,ColomboPrimingTaskA,2020.1.2,MacIntel,60,,,m,1,0.609,0,145,145,73,1,,
,,,,,,,,,,,,heaven,heaevn,HEAVEN,TL2,m,6810,2020-10-18_15h51.21.226,ColomboPrimingTaskA,2020.1.2,MacIntel,60,,,m,1,0.517,0,146,146,23,1,,
,,,,,,,,,,,,scratch,swoatch,SCRATCH,RL1,m,6810,2020-10-18_15h51.21.226,ColomboPrimingTaskA,2020.1.2,MacIntel,60,,,m,1,0.75,0,147,147,56,1,,
,,,,,,,,,,,,petrol,pudrol,PETROL,RL1,m,6810,2020-10-18_15h51.21.226,ColomboPrimingTaskA,2020.1.2,MacIntel,60,,,m,1,0.487,0,148,148,44,1,,
,,,,,,,,,,,,rolief,roleif,ROLIEF,TLNW,z,6810,2020-10-18_15h51.21.226,ColomboPrimingTaskA,2020.1.2,MacIntel,60,,,z,1,0.643,0,149,149,125,1,,
,,,,,,,,,,,,snake,snute,SNAKE,RL2,m,6810,2020-10-18_15h51.21.226,ColomboPrimingTaskA,2020.1.2,MacIntel,60,,,m,1,0.538,0,150,150,61,1,,
,,,,,,,,,,,,dimotaurs,diomtaurs,DIMOTAURS,TLNW,z,6810,2020-10-18_15h51.21.226,ColomboPrimingTaskA,2020.1.2,MacIntel,60,,,z,1,0.642,0,151,151,94,1,,
,,,,,,,,,,,,story,stizy,STORY,RL2,m,6810,2020-10-18_15h51.21.226,ColomboPrimingTaskA,2020.1.2,MacIntel,60,,,m,1,0.607,0,152,152,66,1,,
,,,,,,,,,,,,summer,sumpar,SUMMER,RL2,m,6810,2020-10-18_15h51.21.226,ColomboPrimingTaskA,2020.1.2,MacIntel,60,,,m,1,0.691,0,153,153,67,1,,
,,,,,,,,,,,,statue,stadoe,STATUE,RL2,m,6810,2020-10-18_15h51.21.226,ColomboPrimingTaskA,2020.1.2,MacIntel,60,,,m,1,0.659,0,154,154,64,1,,
,,,,,,,,,,,,holmits,hofnits,HOLMITS,RLNW,z,6810,2020-10-18_15h51.21.226,ColomboPrimingTaskA,2020.1.2,MacIntel,60,,,z,1,0.84,0,155,155,108,1,,
,,,,,,,,,,,,,,,,,6810,2020-10-18_15h51.21.226,ColomboPrimingTaskA,2020.1.2,MacIntel,60,,,,,,,,,,,  soccer, sang along with the melody
