Space1.keys,Space1.rt,Space2.keys,Space2.rt,key_resp.keys,key_resp.corr,key_resp.rt,Practice_loop.thisRepN,Practice_loop.thisTrialN,Practice_loop.thisN,Practice_loop.thisIndex,Practice_loop.ran,Target1,Prime,Target2,Type,CorrAns,Participant I.D.,date,expName,psychopyVersion,OS,frameRate,Space3.keys,Space3.rt,key_resp_2.keys,key_resp_2.corr,key_resp_2.rt,trials.thisRepN,trials.thisTrialN,trials.thisN,trials.thisIndex,trials.ran,typedWord,typedWord2
space,1.669085,space,21.360345,z,1,3.92385,0,0,0,15,1,etephant,etpheant,ETEPHANT,NWTL,z,8604,2020-10-14_12h56.24.415,ColomboPrimingTaskA,2020.1.2,Win32,60,,,,,,,,,,,,
,,,,z,1,2.802435,0,1,1,19,1,bacoon,barkon,BACOON,NWRL,z,8604,2020-10-14_12h56.24.415,ColomboPrimingTaskA,2020.1.2,Win32,60,,,,,,,,,,,,
,,,,m,1,3.403065,0,2,2,5,1,library,lirbary,LIBRARY,WTL,m,8604,2020-10-14_12h56.24.415,ColomboPrimingTaskA,2020.1.2,Win32,60,,,,,,,,,,,,
,,,,m,1,2.29381,0,3,3,0,1,coral,croal,CORAL,WTL,m,8604,2020-10-14_12h56.24.415,ColomboPrimingTaskA,2020.1.2,Win32,60,,,,,,,,,,,,
,,,,m,1,2.380035,0,4,4,1,1,elderflower,elferdower,ELDERFLOWER,WTL,m,8604,2020-10-14_12h56.24.415,ColomboPrimingTaskA,2020.1.2,Win32,60,,,,,,,,,,,,
,,,,z,1,2.38461,0,5,5,14,1,dinital,ditinal,DINITAL,NWTL,z,8604,2020-10-14_12h56.24.415,ColomboPrimingTaskA,2020.1.2,Win32,60,,,,,,,,,,,,
,,,,m,1,2.193915,0,6,6,4,1,laundry,laudnry,LAUNDRY,WTL,m,8604,2020-10-14_12h56.24.415,ColomboPrimingTaskA,2020.1.2,Win32,60,,,,,,,,,,,,
,,,,m,1,1.569085,0,7,7,11,1,violin,viprin,VIOLIN,WRL,m,8604,2020-10-14_12h56.24.415,ColomboPrimingTaskA,2020.1.2,Win32,60,,,,,,,,,,,,
,,,,z,1,2.42797,0,8,8,18,1,alacus,afogus,ALACUS,NWRL,z,8604,2020-10-14_12h56.24.415,ColomboPrimingTaskA,2020.1.2,Win32,60,,,,,,,,,,,,
,,,,z,1,1.87912,0,9,9,22,1,chfistmas,chrustmas,CHFISTMAS,NWRL,z,8604,2020-10-14_12h56.24.415,ColomboPrimingTaskA,2020.1.2,Win32,60,,,,,,,,,,,,
,,,,m,1,2.286775,0,10,10,6,1,monopoly,mogomoly,MONOPOLY,WRL,m,8604,2020-10-14_12h56.24.415,ColomboPrimingTaskA,2020.1.2,Win32,60,,,,,,,,,,,,
,,,,z,1,2.333685,0,11,11,17,1,flech,felch,FLECH,NWTL,z,8604,2020-10-14_12h56.24.415,ColomboPrimingTaskA,2020.1.2,Win32,60,,,,,,,,,,,,
,,,,m,1,1.85212,0,12,12,2,1,festival,fetsival,FESTIVAL,WTL,m,8604,2020-10-14_12h56.24.415,ColomboPrimingTaskA,2020.1.2,Win32,60,,,,,,,,,,,,
,,,,z,1,1.689385,0,13,13,12,1,codfort,cofdort,CODFORT,NWTL,z,8604,2020-10-14_12h56.24.415,ColomboPrimingTaskA,2020.1.2,Win32,60,,,,,,,,,,,,
,,,,m,1,2.279945,0,14,14,3,1,fifty,fitfy,FIFTY,WTL,m,8604,2020-10-14_12h56.24.415,ColomboPrimingTaskA,2020.1.2,Win32,60,,,,,,,,,,,,
,,,,z,1,2.249395,0,15,15,20,1,bubbfes,buddfes,BUBBFES,NWRL,z,8604,2020-10-14_12h56.24.415,ColomboPrimingTaskA,2020.1.2,Win32,60,,,,,,,,,,,,
,,,,m,1,1.76572,0,16,16,7,1,nursery,nuftery,NURSERY,WRL,m,8604,2020-10-14_12h56.24.415,ColomboPrimingTaskA,2020.1.2,Win32,60,,,,,,,,,,,,
,,,,z,1,2.032605,0,17,17,21,1,campet,cantet,CAMPET,NWRL,z,8604,2020-10-14_12h56.24.415,ColomboPrimingTaskA,2020.1.2,Win32,60,,,,,,,,,,,,
,,,,m,1,1.588545,0,18,18,10,1,twitter,twitofr,TWITTER,WRL,m,8604,2020-10-14_12h56.24.415,ColomboPrimingTaskA,2020.1.2,Win32,60,,,,,,,,,,,,
,,,,z,1,1.988185,0,19,19,16,1,clirate,crilate,CLIRATE,NWTL,z,8604,2020-10-14_12h56.24.415,ColomboPrimingTaskA,2020.1.2,Win32,60,,,,,,,,,,,,
,,,,m,1,1.55009,0,20,20,9,1,parcel,pafbel,PARCEL,WRL,m,8604,2020-10-14_12h56.24.415,ColomboPrimingTaskA,2020.1.2,Win32,60,,,,,,,,,,,,
,,,,m,1,1.620915,0,21,21,8,1,picture,pimrure,PICTURE,WRL,m,8604,2020-10-14_12h56.24.415,ColomboPrimingTaskA,2020.1.2,Win32,60,,,,,,,,,,,,
,,,,z,1,1.907555,0,22,22,23,1,cnipper,crupper,CNIPPER,NWRL,z,8604,2020-10-14_12h56.24.415,ColomboPrimingTaskA,2020.1.2,Win32,60,,,,,,,,,,,,
,,,,z,1,2.48037,0,23,23,13,1,cobcert,cocbert,COBCERT,NWTL,z,8604,2020-10-14_12h56.24.415,ColomboPrimingTaskA,2020.1.2,Win32,60,,,,,,,,,,,,
,,,,,,,,,,,,stull,storl,STULL,RLNW,z,8604,2020-10-14_12h56.24.415,ColomboPrimingTaskA,2020.1.2,Win32,60,space,3.00724,z,1,2.28702,0,0,0,136,1,,
,,,,,,,,,,,,patient,ponient,PATIENT,RL1,m,8604,2020-10-14_12h56.24.415,ColomboPrimingTaskA,2020.1.2,Win32,60,,,m,1,1.685845,0,1,1,41,1,,
,,,,,,,,,,,,spear,spoir,SPEAR,RL2,m,8604,2020-10-14_12h56.24.415,ColomboPrimingTaskA,2020.1.2,Win32,60,,,m,1,1.47183,0,2,2,62,1,,
,,,,,,,,,,,,believe,bleieve,BELIEVE,TL1,m,8604,2020-10-14_12h56.24.415,ColomboPrimingTaskA,2020.1.2,Win32,60,,,m,1,1.324225,0,3,3,5,1,,
,,,,,,,,,,,,foreign,foregin,FOREIGN,TL2,m,8604,2020-10-14_12h56.24.415,ColomboPrimingTaskA,2020.1.2,Win32,60,,,m,1,1.139675,0,4,4,19,1,,
,,,,,,,,,,,,stomach,stomush,STOMACH,RL2,m,8604,2020-10-14_12h56.24.415,ColomboPrimingTaskA,2020.1.2,Win32,60,,,m,1,1.39466,0,5,5,65,1,,
,,,,,,,,,,,,forty,fotry,FORTY,TL2,m,8604,2020-10-14_12h56.24.415,ColomboPrimingTaskA,2020.1.2,Win32,60,,,m,1,1.35069,0,6,6,21,1,,
,,,,,,,,,,,,chupter,chutper,CHUPTER,TLNW,z,8604,2020-10-14_12h56.24.415,ColomboPrimingTaskA,2020.1.2,Win32,60,,,z,1,1.21071,0,7,7,87,1,,
,,,,,,,,,,,,almond,amlond,ALMOND,TL1,m,8604,2020-10-14_12h56.24.415,ColomboPrimingTaskA,2020.1.2,Win32,60,,,m,1,0.991085,0,8,8,0,1,,
,,,,,,,,,,,,woary,wonvy,WOARY,RLNW,z,8604,2020-10-14_12h56.24.415,ColomboPrimingTaskA,2020.1.2,Win32,60,,,z,1,1.73667,0,9,9,153,1,,
,,,,,,,,,,,,singer,sarger,SINGER,RL1,m,8604,2020-10-14_12h56.24.415,ColomboPrimingTaskA,2020.1.2,Win32,60,,,m,1,1.120305,0,10,10,57,1,,
,,,,,,,,,,,,biscuit,bsicuit,BISCUIT,TL1,m,8604,2020-10-14_12h56.24.415,ColomboPrimingTaskA,2020.1.2,Win32,60,,,m,1,1.06701,0,11,11,7,1,,
,,,,,,,,,,,,thirns,thowns,THIRNS,RLNW,z,8604,2020-10-14_12h56.24.415,ColomboPrimingTaskA,2020.1.2,Win32,60,,,z,1,1.2715,0,12,12,148,1,,
,,,,,,,,,,,,holiday,holiady,HOLIDAY,TL2,m,8604,2020-10-14_12h56.24.415,ColomboPrimingTaskA,2020.1.2,Win32,60,,,m,1,0.960335,0,13,13,25,1,,
,,,,,,,,,,,,wilked,winted,WILKED,RLNW,z,8604,2020-10-14_12h56.24.415,ColomboPrimingTaskA,2020.1.2,Win32,60,,,z,1,1.640725,0,14,14,152,1,,
,,,,,,,,,,,,dufty,dulpy,DUFTY,RLNW,z,8604,2020-10-14_12h56.24.415,ColomboPrimingTaskA,2020.1.2,Win32,60,,,z,1,1.594865,0,15,15,97,1,,
,,,,,,,,,,,,legend,legned,LEGEND,TL2,m,8604,2020-10-14_12h56.24.415,ColomboPrimingTaskA,2020.1.2,Win32,60,,,m,1,1.00026,0,16,16,31,1,,
,,,,,,,,,,,,natural,natuarl,NATURAL,TL2,m,8604,2020-10-14_12h56.24.415,ColomboPrimingTaskA,2020.1.2,Win32,60,,,m,1,1.113675,0,17,17,37,1,,
,,,,,,,,,,,,hibernate,hiberntae,HIBERNATE,TL2,m,8604,2020-10-14_12h56.24.415,ColomboPrimingTaskA,2020.1.2,Win32,60,,,m,1,1.16208,0,18,18,24,1,,
,,,,,,,,,,,,thought,thourst,THOUGHT,RL2,m,8604,2020-10-14_12h56.24.415,ColomboPrimingTaskA,2020.1.2,Win32,60,,,m,1,1.227705,0,19,19,71,1,,
,,,,,,,,,,,,floats,folats,FLOATS,TL1,m,8604,2020-10-14_12h56.24.415,ColomboPrimingTaskA,2020.1.2,Win32,60,,,m,1,1.01781,0,20,20,17,1,,
,,,,,,,,,,,,spirit,spizat,SPIRIT,RL2,m,8604,2020-10-14_12h56.24.415,ColomboPrimingTaskA,2020.1.2,Win32,60,,,m,1,1.228395,0,21,21,63,1,,
,,,,,,,,,,,,sleeve,sleone,SLEEVE,RL2,m,8604,2020-10-14_12h56.24.415,ColomboPrimingTaskA,2020.1.2,Win32,60,,,m,1,0.997345,0,22,22,58,1,,
,,,,,,,,,,,,yowned,yoazed,YOWNED,RLNW,z,8604,2020-10-14_12h56.24.415,ColomboPrimingTaskA,2020.1.2,Win32,60,,,z,1,1.220365,0,23,23,155,1,,
,,,,,,,,,,,,blanket,balnket,BLANKET,TL1,m,8604,2020-10-14_12h56.24.415,ColomboPrimingTaskA,2020.1.2,Win32,60,,,m,1,0.923,0,24,24,8,1,,
,,,,,,,,,,,,talking,talkerg,TALKING,RL2,m,8604,2020-10-14_12h56.24.415,ColomboPrimingTaskA,2020.1.2,Win32,60,,,m,1,0.93634,0,25,25,70,1,,
,,,,,,,,,,,,plain,proin,PLAIN,RL1,m,8604,2020-10-14_12h56.24.415,ColomboPrimingTaskA,2020.1.2,Win32,60,,,m,1,0.934745,0,26,26,46,1,,
,,,,,,,,,,,,swallow,swaldaw,SWALLOW,RL2,m,8604,2020-10-14_12h56.24.415,ColomboPrimingTaskA,2020.1.2,Win32,60,,,m,1,0.977235,0,27,27,69,1,,
,,,,,,,,,,,,tourist,tourant,TOURIST,RL2,m,8604,2020-10-14_12h56.24.415,ColomboPrimingTaskA,2020.1.2,Win32,60,,,m,1,0.96148,0,28,28,72,1,,
,,,,,,,,,,,,twotched,tartched,TWOTCHED,RLNW,z,8604,2020-10-14_12h56.24.415,ColomboPrimingTaskA,2020.1.2,Win32,60,,,z,1,0.93117,0,29,29,151,1,,
,,,,,,,,,,,,niffling,nitffing,NIFFLING,RLNW,z,8604,2020-10-14_12h56.24.415,ColomboPrimingTaskA,2020.1.2,Win32,60,,,z,1,1.18071,0,30,30,116,1,,
,,,,,,,,,,,,canivan,canvian,CANIVAN,TLNW,z,8604,2020-10-14_12h56.24.415,ColomboPrimingTaskA,2020.1.2,Win32,60,,,z,1,1.499135,0,31,31,84,1,,
,,,,,,,,,,,,burning,bruning,BURNING,TL1,m,8604,2020-10-14_12h56.24.415,ColomboPrimingTaskA,2020.1.2,Win32,60,,,m,1,0.861805,0,32,32,9,1,,
,,,,,,,,,,,,heafs,heils,HEAFS,RLNW,z,8604,2020-10-14_12h56.24.415,ColomboPrimingTaskA,2020.1.2,Win32,60,,,z,1,1.1089,0,33,33,106,1,,
,,,,,,,,,,,,skirping,skriping,SKIRPING,TLNW,z,8604,2020-10-14_12h56.24.415,ColomboPrimingTaskA,2020.1.2,Win32,60,,,z,1,1.069835,0,34,34,131,1,,
,,,,,,,,,,,,panther,pirther,PANTHER,RL1,m,8604,2020-10-14_12h56.24.415,ColomboPrimingTaskA,2020.1.2,Win32,60,,,m,1,0.873455,0,35,35,40,1,,
,,,,,,,,,,,,rolief,roleif,ROLIEF,TLNW,z,8604,2020-10-14_12h56.24.415,ColomboPrimingTaskA,2020.1.2,Win32,60,,,z,1,1.06348,0,36,36,125,1,,
,,,,,,,,,,,,pigeon,payeon,PIGEON,RL1,m,8604,2020-10-14_12h56.24.415,ColomboPrimingTaskA,2020.1.2,Win32,60,,,m,1,0.91002,0,37,37,45,1,,
,,,,,,,,,,,,scraff,srcaff,SCRAFF,TLNW,z,8604,2020-10-14_12h56.24.415,ColomboPrimingTaskA,2020.1.2,Win32,60,,,z,1,1.077565,0,38,38,128,1,,
,,,,,,,,,,,,troasure,tronture,TROASURE,RLNW,z,8604,2020-10-14_12h56.24.415,ColomboPrimingTaskA,2020.1.2,Win32,60,,,z,1,1.056405,0,39,39,146,1,,
,,,,,,,,,,,,tronch,taunch,TRONCH,RLNW,z,8604,2020-10-14_12h56.24.415,ColomboPrimingTaskA,2020.1.2,Win32,60,,,z,1,1.02284,0,40,40,150,1,,
,,,,,,,,,,,,arvument,avrument,ARVUMENT,TLNW,z,8604,2020-10-14_12h56.24.415,ColomboPrimingTaskA,2020.1.2,Win32,60,,,z,1,0.967145,0,41,41,79,1,,
,,,,,,,,,,,,wardrobe,wardrile,WARDROBE,RL2,m,8604,2020-10-14_12h56.24.415,ColomboPrimingTaskA,2020.1.2,Win32,60,,,m,1,1.564835,0,42,42,75,1,,
,,,,,,,,,,,,sibble,siblbe,SIBBLE,TLNW,z,8604,2020-10-14_12h56.24.415,ColomboPrimingTaskA,2020.1.2,Win32,60,,,z,1,3.6146,0,43,43,129,1,,
,,,,,,,,,,,,rolin,roiln,ROLIN,TLNW,z,8604,2020-10-14_12h56.24.415,ColomboPrimingTaskA,2020.1.2,Win32,60,,,z,1,1.0775,0,44,44,126,1,,
,,,,,,,,,,,,holmits,hofnits,HOLMITS,RLNW,z,8604,2020-10-14_12h56.24.415,ColomboPrimingTaskA,2020.1.2,Win32,60,,,z,1,1.52862,0,45,45,108,1,,
,,,,,,,,,,,,orchestra,orchesrta,ORCHESTRA,TL2,m,8604,2020-10-14_12h56.24.415,ColomboPrimingTaskA,2020.1.2,Win32,60,,,m,1,0.84981,0,46,46,38,1,,
,,,,,,,,,,,,dored,droed,DORED,TLNW,z,8604,2020-10-14_12h56.24.415,ColomboPrimingTaskA,2020.1.2,Win32,60,,,z,1,1.20774,0,47,47,96,1,,
,,,,,,,,,,,,stipping,stipporg,STIPPING,RLNW,z,8604,2020-10-14_12h56.24.415,ColomboPrimingTaskA,2020.1.2,Win32,60,,,z,1,1.63912,0,48,48,140,1,,
,,,,,,,,,,,,crockle,corckle,CROCKLE,TLNW,z,8604,2020-10-14_12h56.24.415,ColomboPrimingTaskA,2020.1.2,Win32,60,,,z,1,1.11058,0,49,49,89,1,,
,,,,,,,,,,,,fulore,fitore,FULORE,RLNW,z,8604,2020-10-14_12h56.24.415,ColomboPrimingTaskA,2020.1.2,Win32,60,,,z,1,1.287045,0,50,50,103,1,,
,,,,,,,,,,,,birthday,brithday,BIRTHDAY,TL1,m,8604,2020-10-14_12h56.24.415,ColomboPrimingTaskA,2020.1.2,Win32,60,,,m,1,0.786985,0,51,51,6,1,,
,,,,,,,,,,,,swump,scomp,SWUMP,RLNW,z,8604,2020-10-14_12h56.24.415,ColomboPrimingTaskA,2020.1.2,Win32,60,,,z,1,0.83635,0,52,52,144,1,,
,,,,,,,,,,,,difentions,difnetions,DIFENTIONS,TLNW,z,8604,2020-10-14_12h56.24.415,ColomboPrimingTaskA,2020.1.2,Win32,60,,,z,1,1.384285,0,53,53,95,1,,
,,,,,,,,,,,,snake,snute,SNAKE,RL2,m,8604,2020-10-14_12h56.24.415,ColomboPrimingTaskA,2020.1.2,Win32,60,,,m,1,0.76877,0,54,54,61,1,,
,,,,,,,,,,,,penguin,purguin,PENGUIN,RL1,m,8604,2020-10-14_12h56.24.415,ColomboPrimingTaskA,2020.1.2,Win32,60,,,m,1,0.890725,0,55,55,43,1,,
,,,,,,,,,,,,hospital,hospiatl,HOSPITAL,TL2,m,8604,2020-10-14_12h56.24.415,ColomboPrimingTaskA,2020.1.2,Win32,60,,,m,1,0.94421,0,56,56,26,1,,
,,,,,,,,,,,,plastic,prostic,PLASTIC,RL1,m,8604,2020-10-14_12h56.24.415,ColomboPrimingTaskA,2020.1.2,Win32,60,,,m,1,0.927425,0,57,57,47,1,,
,,,,,,,,,,,,powerful,panerful,POWERFUL,RL1,m,8604,2020-10-14_12h56.24.415,ColomboPrimingTaskA,2020.1.2,Win32,60,,,m,1,0.927395,0,58,58,49,1,,
,,,,,,,,,,,,mirtioned,minfioned,MIRTIONED,RLNW,z,8604,2020-10-14_12h56.24.415,ColomboPrimingTaskA,2020.1.2,Win32,60,,,z,1,1.643945,0,59,59,113,1,,
,,,,,,,,,,,,smooth,smouch,SMOOTH,RL2,m,8604,2020-10-14_12h56.24.415,ColomboPrimingTaskA,2020.1.2,Win32,60,,,m,1,0.83249,0,60,60,59,1,,
,,,,,,,,,,,,sunset,suncot,SUNSET,RL2,m,8604,2020-10-14_12h56.24.415,ColomboPrimingTaskA,2020.1.2,Win32,60,,,m,1,0.93304,0,61,61,68,1,,
,,,,,,,,,,,,knorn,klarn,KNORN,RLNW,z,8604,2020-10-14_12h56.24.415,ColomboPrimingTaskA,2020.1.2,Win32,60,,,z,1,0.90316,0,62,62,109,1,,
,,,,,,,,,,,,proffed,porffed,PROFFED,TLNW,z,8604,2020-10-14_12h56.24.415,ColomboPrimingTaskA,2020.1.2,Win32,60,,,z,1,1.05012,0,63,63,122,1,,
,,,,,,,,,,,,leopard,leoprad,LEOPARD,TL2,m,8604,2020-10-14_12h56.24.415,ColomboPrimingTaskA,2020.1.2,Win32,60,,,m,1,0.863495,0,64,64,32,1,,
,,,,,,,,,,,,forest,forset,FOREST,TL2,m,8604,2020-10-14_12h56.24.415,ColomboPrimingTaskA,2020.1.2,Win32,60,,,m,1,0.819975,0,65,65,20,1,,
,,,,,,,,,,,,market,marekt,MARKET,TL2,m,8604,2020-10-14_12h56.24.415,ColomboPrimingTaskA,2020.1.2,Win32,60,,,m,1,0.786515,0,66,66,34,1,,
,,,,,,,,,,,,crishing,cirshing,CRISHING,TLNW,z,8604,2020-10-14_12h56.24.415,ColomboPrimingTaskA,2020.1.2,Win32,60,,,z,1,0.97749,0,67,67,90,1,,
,,,,,,,,,,,,spoff,swoff,SPOFF,RLNW,z,8604,2020-10-14_12h56.24.415,ColomboPrimingTaskA,2020.1.2,Win32,60,,,z,1,1.660115,0,68,68,143,1,,
,,,,,,,,,,,,pavement,pirement,PAVEMENT,RL1,m,8604,2020-10-14_12h56.24.415,ColomboPrimingTaskA,2020.1.2,Win32,60,,,m,1,1.533675,0,69,69,42,1,,
,,,,,,,,,,,,roinwater,rionwater,ROINWATER,TLNW,z,8604,2020-10-14_12h56.24.415,ColomboPrimingTaskA,2020.1.2,Win32,60,,,z,1,0.983445,0,70,70,123,1,,
,,,,,,,,,,,,stilks,stliks,STILKS,TLNW,z,8604,2020-10-14_12h56.24.415,ColomboPrimingTaskA,2020.1.2,Win32,60,,,z,1,1.104785,0,71,71,135,1,,
,,,,,,,,,,,,emter,erfer,EMTER,RLNW,z,8604,2020-10-14_12h56.24.415,ColomboPrimingTaskA,2020.1.2,Win32,60,,,z,1,1.045395,0,72,72,99,1,,
,,,,,,,,,,,,renorded,renroded,RENORDED,TLNW,z,8604,2020-10-14_12h56.24.415,ColomboPrimingTaskA,2020.1.2,Win32,60,,,z,1,1.400195,0,73,73,124,1,,
,,,,,,,,,,,,lopely,lopary,LOPELY,RLNW,z,8604,2020-10-14_12h56.24.415,ColomboPrimingTaskA,2020.1.2,Win32,60,,,z,1,0.96815,0,74,74,111,1,,
,,,,,,,,,,,,hotel,hoetl,HOTEL,TL2,m,8604,2020-10-14_12h56.24.415,ColomboPrimingTaskA,2020.1.2,Win32,60,,,m,1,0.824225,0,75,75,27,1,,
,,,,,,,,,,,,robber,ramber,ROBBER,RL1,m,8604,2020-10-14_12h56.24.415,ColomboPrimingTaskA,2020.1.2,Win32,60,,,m,1,0.985005,0,76,76,54,1,,
,,,,,,,,,,,,privary,privray,PRIVARY,TLNW,z,8604,2020-10-14_12h56.24.415,ColomboPrimingTaskA,2020.1.2,Win32,60,,,z,1,0.990935,0,77,77,121,1,,
,,,,,,,,,,,,entry,etnry,ENTRY,TL1,m,8604,2020-10-14_12h56.24.415,ColomboPrimingTaskA,2020.1.2,Win32,60,,,m,1,0.838425,0,78,78,15,1,,
,,,,,,,,,,,,scratch,swoatch,SCRATCH,RL1,m,8604,2020-10-14_12h56.24.415,ColomboPrimingTaskA,2020.1.2,Win32,60,,,m,1,1.092625,0,79,79,56,1,,
,,,,,,,,,,,,midute,midoke,MIDUTE,RLNW,z,8604,2020-10-14_12h56.24.415,ColomboPrimingTaskA,2020.1.2,Win32,60,,,z,1,0.91365,0,80,80,114,1,,
,,,,,,,,,,,,sturfish,stonfish,STURFISH,RLNW,z,8604,2020-10-14_12h56.24.415,ColomboPrimingTaskA,2020.1.2,Win32,60,,,z,1,2.01824,0,81,81,139,1,,
,,,,,,,,,,,,drink,dirnk,DRINK,TL1,m,8604,2020-10-14_12h56.24.415,ColomboPrimingTaskA,2020.1.2,Win32,60,,,m,1,0.69577,0,82,82,14,1,,
,,,,,,,,,,,,skiffed,skfifed,SKIFFED,TLNW,z,8604,2020-10-14_12h56.24.415,ColomboPrimingTaskA,2020.1.2,Win32,60,,,z,1,1.13153,0,83,83,130,1,,
,,,,,,,,,,,,standust,stalkust,STANDUST,RLNW,z,8604,2020-10-14_12h56.24.415,ColomboPrimingTaskA,2020.1.2,Win32,60,,,z,1,1.4876,0,84,84,138,1,,
,,,,,,,,,,,,kitchen,kitcehn,KITCHEN,TL2,m,8604,2020-10-14_12h56.24.415,ColomboPrimingTaskA,2020.1.2,Win32,60,,,m,1,0.74552,0,85,85,30,1,,
,,,,,,,,,,,,round,reand,ROUND,RL1,m,8604,2020-10-14_12h56.24.415,ColomboPrimingTaskA,2020.1.2,Win32,60,,,m,1,1.347235,0,86,86,55,1,,
,,,,,,,,,,,,environment,evnironment,ENVIRONMENT,TL1,m,8604,2020-10-14_12h56.24.415,ColomboPrimingTaskA,2020.1.2,Win32,60,,,m,1,1.018865,0,87,87,16,1,,
,,,,,,,,,,,,esferiment,emteriment,ESFERIMENT,RLNW,z,8604,2020-10-14_12h56.24.415,ColomboPrimingTaskA,2020.1.2,Win32,60,,,z,1,1.25963,0,88,88,100,1,,
,,,,,,,,,,,,child,cihld,CHILD,TL1,m,8604,2020-10-14_12h56.24.415,ColomboPrimingTaskA,2020.1.2,Win32,60,,,m,1,0.78419,0,89,89,12,1,,
,,,,,,,,,,,,caterpiddar,catrepiddar,CATERPIDDAR,TLNW,z,8604,2020-10-14_12h56.24.415,ColomboPrimingTaskA,2020.1.2,Win32,60,,,z,1,1.38186,0,90,90,86,1,,
,,,,,,,,,,,,stoze,skaze,STOZE,RLNW,z,8604,2020-10-14_12h56.24.415,ColomboPrimingTaskA,2020.1.2,Win32,60,,,z,1,0.85916,0,91,91,141,1,,
,,,,,,,,,,,,chicken,cihcken,CHICKEN,TL1,m,8604,2020-10-14_12h56.24.415,ColomboPrimingTaskA,2020.1.2,Win32,60,,,m,1,0.69371,0,92,92,11,1,,
,,,,,,,,,,,,following,flolowing,FOLLOWING,TL1,m,8604,2020-10-14_12h56.24.415,ColomboPrimingTaskA,2020.1.2,Win32,60,,,m,1,3.05415,0,93,93,18,1,,
,,,,,,,,,,,,hoafe,houte,HOAFE,RLNW,z,8604,2020-10-14_12h56.24.415,ColomboPrimingTaskA,2020.1.2,Win32,60,,,z,1,0.81954,0,94,94,107,1,,
,,,,,,,,,,,,summer,sumpar,SUMMER,RL2,m,8604,2020-10-14_12h56.24.415,ColomboPrimingTaskA,2020.1.2,Win32,60,,,m,1,0.890015,0,95,95,67,1,,
,,,,,,,,,,,,stody,spady,STODY,RLNW,z,8604,2020-10-14_12h56.24.415,ColomboPrimingTaskA,2020.1.2,Win32,60,,,z,1,0.72849,0,96,96,142,1,,
,,,,,,,,,,,,motter,mlater,MOTTER,RLNW,z,8604,2020-10-14_12h56.24.415,ColomboPrimingTaskA,2020.1.2,Win32,60,,,z,1,0.95314,0,97,97,115,1,,
,,,,,,,,,,,,gniching,gruching,GNICHING,RLNW,z,8604,2020-10-14_12h56.24.415,ColomboPrimingTaskA,2020.1.2,Win32,60,,,z,1,0.944905,0,98,98,104,1,,
,,,,,,,,,,,,taidor,tordor,TAIDOR,RLNW,z,8604,2020-10-14_12h56.24.415,ColomboPrimingTaskA,2020.1.2,Win32,60,,,z,1,0.730905,0,99,99,145,1,,
,,,,,,,,,,,,pench,pnech,PENCH,TLNW,z,8604,2020-10-14_12h56.24.415,ColomboPrimingTaskA,2020.1.2,Win32,60,,,z,1,1.085955,0,100,100,118,1,,
,,,,,,,,,,,,alphabet,aplhabet,ALPHABET,TL1,m,8604,2020-10-14_12h56.24.415,ColomboPrimingTaskA,2020.1.2,Win32,60,,,m,1,0.72715,0,101,101,1,1,,
,,,,,,,,,,,,lying,lynig,LYING,TL2,m,8604,2020-10-14_12h56.24.415,ColomboPrimingTaskA,2020.1.2,Win32,60,,,m,1,1.045155,0,102,102,33,1,,
,,,,,,,,,,,,instant,instnat,INSTANT,TL2,m,8604,2020-10-14_12h56.24.415,ColomboPrimingTaskA,2020.1.2,Win32,60,,,m,1,0.702895,0,103,103,29,1,,
,,,,,,,,,,,,snack,snurk,SNACK,RL2,m,8604,2020-10-14_12h56.24.415,ColomboPrimingTaskA,2020.1.2,Win32,60,,,m,1,0.844195,0,104,104,60,1,,
,,,,,,,,,,,,meanwhile,meanwhlie,MEANWHILE,TL2,m,8604,2020-10-14_12h56.24.415,ColomboPrimingTaskA,2020.1.2,Win32,60,,,m,1,0.91305,0,105,105,36,1,,
,,,,,,,,,,,,sporks,sproks,SPORKS,TLNW,z,8604,2020-10-14_12h56.24.415,ColomboPrimingTaskA,2020.1.2,Win32,60,,,z,1,1.185945,0,106,106,132,1,,
,,,,,,,,,,,,basket,bsaket,BASKET,TL1,m,8604,2020-10-14_12h56.24.415,ColomboPrimingTaskA,2020.1.2,Win32,60,,,m,1,0.77761,0,107,107,4,1,,
,,,,,,,,,,,,prince,plunce,PRINCE,RL1,m,8604,2020-10-14_12h56.24.415,ColomboPrimingTaskA,2020.1.2,Win32,60,,,m,1,0.94511,0,108,108,50,1,,
,,,,,,,,,,,,match,macth,MATCH,TL2,m,8604,2020-10-14_12h56.24.415,ColomboPrimingTaskA,2020.1.2,Win32,60,,,m,1,0.86898,0,109,109,35,1,,
,,,,,,,,,,,,rimble,ribmle,RIMBLE,TLNW,z,8604,2020-10-14_12h56.24.415,ColomboPrimingTaskA,2020.1.2,Win32,60,,,z,1,1.086805,0,110,110,127,1,,
,,,,,,,,,,,,senved,serced,SENVED,RLNW,z,8604,2020-10-14_12h56.24.415,ColomboPrimingTaskA,2020.1.2,Win32,60,,,z,1,0.878155,0,111,111,101,1,,
,,,,,,,,,,,,button,btuton,BUTTON,TL1,m,8604,2020-10-14_12h56.24.415,ColomboPrimingTaskA,2020.1.2,Win32,60,,,m,1,0.90984,0,112,112,10,1,,
,,,,,,,,,,,,thoatre,thoikre,THOATRE,RLNW,z,8604,2020-10-14_12h56.24.415,ColomboPrimingTaskA,2020.1.2,Win32,60,,,z,1,1.027285,0,113,113,147,1,,
,,,,,,,,,,,,cammied,cammeid,CAMMIED,TLNW,z,8604,2020-10-14_12h56.24.415,ColomboPrimingTaskA,2020.1.2,Win32,60,,,z,1,1.567485,0,114,114,85,1,,
,,,,,,,,,,,,referee,raderee,REFEREE,RL1,m,8604,2020-10-14_12h56.24.415,ColomboPrimingTaskA,2020.1.2,Win32,60,,,m,1,3.79478,0,115,115,52,1,,
,,,,,,,,,,,,heaven,heaevn,HEAVEN,TL2,m,8604,2020-10-14_12h56.24.415,ColomboPrimingTaskA,2020.1.2,Win32,60,,,m,1,0.84098,0,116,116,23,1,,
,,,,,,,,,,,,tomay,tovoy,TOMAY,RLNW,z,8604,2020-10-14_12h56.24.415,ColomboPrimingTaskA,2020.1.2,Win32,60,,,z,1,0.928055,0,117,117,149,1,,
,,,,,,,,,,,,influence,influecne,INFLUENCE,TL2,m,8604,2020-10-14_12h56.24.415,ColomboPrimingTaskA,2020.1.2,Win32,60,,,m,1,0.918255,0,118,118,28,1,,
,,,,,,,,,,,,crunphy,curnphy,CRUNPHY,TLNW,z,8604,2020-10-14_12h56.24.415,ColomboPrimingTaskA,2020.1.2,Win32,60,,,z,1,0.968785,0,119,119,92,1,,
,,,,,,,,,,,,curfomers,crufomers,CURFOMERS,TLNW,z,8604,2020-10-14_12h56.24.415,ColomboPrimingTaskA,2020.1.2,Win32,60,,,z,1,0.882965,0,120,120,93,1,,
,,,,,,,,,,,,outside,ondside,OUTSIDE,RL1,m,8604,2020-10-14_12h56.24.415,ColomboPrimingTaskA,2020.1.2,Win32,60,,,m,1,0.717745,0,121,121,39,1,,
,,,,,,,,,,,,around,aorund,AROUND,TL1,m,8604,2020-10-14_12h56.24.415,ColomboPrimingTaskA,2020.1.2,Win32,60,,,m,1,0.83959,0,122,122,2,1,,
,,,,,,,,,,,,return,rafurn,RETURN,RL1,m,8604,2020-10-14_12h56.24.415,ColomboPrimingTaskA,2020.1.2,Win32,60,,,m,1,0.89479,0,123,123,53,1,,
,,,,,,,,,,,,spailt,spalit,SPAILT,TLNW,z,8604,2020-10-14_12h56.24.415,ColomboPrimingTaskA,2020.1.2,Win32,60,,,z,1,0.760935,0,124,124,133,1,,
,,,,,,,,,,,,loarnt,lozint,LOARNT,RLNW,z,8604,2020-10-14_12h56.24.415,ColomboPrimingTaskA,2020.1.2,Win32,60,,,z,1,1.052245,0,125,125,110,1,,
,,,,,,,,,,,,apting,atping,APTING,TLNW,z,8604,2020-10-14_12h56.24.415,ColomboPrimingTaskA,2020.1.2,Win32,60,,,z,1,0.83908,0,126,126,78,1,,
,,,,,,,,,,,,vegetable,vegetance,VEGETABLE,RL2,m,8604,2020-10-14_12h56.24.415,ColomboPrimingTaskA,2020.1.2,Win32,60,,,m,1,0.834525,0,127,127,74,1,,
,,,,,,,,,,,,winner,winfor,WINNER,RL2,m,8604,2020-10-14_12h56.24.415,ColomboPrimingTaskA,2020.1.2,Win32,60,,,m,1,0.87773,0,128,128,76,1,,
,,,,,,,,,,,,awful,afwul,AWFUL,TL1,m,8604,2020-10-14_12h56.24.415,ColomboPrimingTaskA,2020.1.2,Win32,60,,,m,1,0.653845,0,129,129,3,1,,
,,,,,,,,,,,,grufes,glofes,GRUFES,RLNW,z,8604,2020-10-14_12h56.24.415,ColomboPrimingTaskA,2020.1.2,Win32,60,,,z,1,1.02197,0,130,130,105,1,,
,,,,,,,,,,,,story,stizy,STORY,RL2,m,8604,2020-10-14_12h56.24.415,ColomboPrimingTaskA,2020.1.2,Win32,60,,,m,1,0.90675,0,131,131,66,1,,
,,,,,,,,,,,,potato,pidato,POTATO,RL1,m,8604,2020-10-14_12h56.24.415,ColomboPrimingTaskA,2020.1.2,Win32,60,,,m,1,0.827015,0,132,132,48,1,,
,,,,,,,,,,,,dentist,dnetist,DENTIST,TL1,m,8604,2020-10-14_12h56.24.415,ColomboPrimingTaskA,2020.1.2,Win32,60,,,m,1,0.8279,0,133,133,13,1,,
,,,,,,,,,,,,dimotaurs,diomtaurs,DIMOTAURS,TLNW,z,8604,2020-10-14_12h56.24.415,ColomboPrimingTaskA,2020.1.2,Win32,60,,,z,1,0.995235,0,134,134,94,1,,
,,,,,,,,,,,,stoff,sotff,STOFF,TLNW,z,8604,2020-10-14_12h56.24.415,ColomboPrimingTaskA,2020.1.2,Win32,60,,,z,1,1.05592,0,135,135,134,1,,
,,,,,,,,,,,,petrol,pudrol,PETROL,RL1,m,8604,2020-10-14_12h56.24.415,ColomboPrimingTaskA,2020.1.2,Win32,60,,,m,1,0.74971,0,136,136,44,1,,
,,,,,,,,,,,,trapped,traplod,TRAPPED,RL2,m,8604,2020-10-14_12h56.24.415,ColomboPrimingTaskA,2020.1.2,Win32,60,,,m,1,0.990265,0,137,137,73,1,,
,,,,,,,,,,,,onerall,onreall,ONERALL,TLNW,z,8604,2020-10-14_12h56.24.415,ColomboPrimingTaskA,2020.1.2,Win32,60,,,z,1,0.967745,0,138,138,117,1,,
,,,,,,,,,,,,playnime,planyime,PLAYNIME,TLNW,z,8604,2020-10-14_12h56.24.415,ColomboPrimingTaskA,2020.1.2,Win32,60,,,z,1,1.399105,0,139,139,120,1,,
,,,,,,,,,,,,print,puant,PRINT,RL1,m,8604,2020-10-14_12h56.24.415,ColomboPrimingTaskA,2020.1.2,Win32,60,,,m,1,0.8392,0,140,140,51,1,,
,,,,,,,,,,,,statue,stadoe,STATUE,RL2,m,8604,2020-10-14_12h56.24.415,ColomboPrimingTaskA,2020.1.2,Win32,60,,,m,1,0.878965,0,141,141,64,1,,
,,,,,,,,,,,,bidger,bdiger,BIDGER,TLNW,z,8604,2020-10-14_12h56.24.415,ColomboPrimingTaskA,2020.1.2,Win32,60,,,z,1,1.01742,0,142,142,81,1,,
,,,,,,,,,,,,boach,baoch,BOACH,TLNW,z,8604,2020-10-14_12h56.24.415,ColomboPrimingTaskA,2020.1.2,Win32,60,,,z,1,0.901935,0,143,143,82,1,,
,,,,,,,,,,,,markles,martnes,MARKLES,RLNW,z,8604,2020-10-14_12h56.24.415,ColomboPrimingTaskA,2020.1.2,Win32,60,,,z,1,0.992695,0,144,144,112,1,,
,,,,,,,,,,,,crims,cirms,CRIMS,TLNW,z,8604,2020-10-14_12h56.24.415,ColomboPrimingTaskA,2020.1.2,Win32,60,,,z,1,0.6573,0,145,145,91,1,,
,,,,,,,,,,,,asbrunaut,absrunaut,ASBRUNAUT,TLNW,z,8604,2020-10-14_12h56.24.415,ColomboPrimingTaskA,2020.1.2,Win32,60,,,z,1,1.158875,0,146,146,80,1,,
,,,,,,,,,,,,callage,callgae,CALLAGE,TLNW,z,8604,2020-10-14_12h56.24.415,ColomboPrimingTaskA,2020.1.2,Win32,60,,,z,1,1.078195,0,147,147,83,1,,
,,,,,,,,,,,,stimp,sturp,STIMP,RLNW,z,8604,2020-10-14_12h56.24.415,ColomboPrimingTaskA,2020.1.2,Win32,60,,,z,1,0.87822,0,148,148,137,1,,
,,,,,,,,,,,,ghost,ghsot,GHOST,TL2,m,8604,2020-10-14_12h56.24.415,ColomboPrimingTaskA,2020.1.2,Win32,60,,,m,1,0.902195,0,149,149,22,1,,
,,,,,,,,,,,,clavely,calvely,CLAVELY,TLNW,z,8604,2020-10-14_12h56.24.415,ColomboPrimingTaskA,2020.1.2,Win32,60,,,z,1,1.444235,0,150,150,88,1,,
,,,,,,,,,,,,winter,winfur,WINTER,RL2,m,8604,2020-10-14_12h56.24.415,ColomboPrimingTaskA,2020.1.2,Win32,60,,,m,1,0.727385,0,151,151,77,1,,
,,,,,,,,,,,,wutch,wursh,WUTCH,RLNW,z,8604,2020-10-14_12h56.24.415,ColomboPrimingTaskA,2020.1.2,Win32,60,,,z,1,1.385295,0,152,152,154,1,,
,,,,,,,,,,,,enezies,enefoes,ENEZIES,RLNW,z,8604,2020-10-14_12h56.24.415,ColomboPrimingTaskA,2020.1.2,Win32,60,,,z,1,1.04036,0,153,153,98,1,,
,,,,,,,,,,,,pevuliar,peuvliar,PEVULIAR,TLNW,z,8604,2020-10-14_12h56.24.415,ColomboPrimingTaskA,2020.1.2,Win32,60,,,z,1,1.399715,0,154,154,119,1,,
,,,,,,,,,,,,flazer,fruzer,FLAZER,RLNW,z,8604,2020-10-14_12h56.24.415,ColomboPrimingTaskA,2020.1.2,Win32,60,,,z,1,0.966015,0,155,155,102,1,,
,,,,,,,,,,,,,,,,,8604,2020-10-14_12h56.24.415,ColomboPrimingTaskA,2020.1.2,Win32,60,,,,,,,,,,, happy, lions shoulder during the show
